condition,subject,trial,sub_task,cat,x,y,xt,yt,resp,rt,fb
4F4K_congruent,151,0,2,97,48.1,75.76,0.05,1.19,97,688,Incorrect
4F4K_congruent,151,1,2,108,38.57,19.13,0.04,0.3,108,7760,Correct
4F4K_congruent,151,2,1,115,36.8,57.43,0.04,0.9,115,9016,Correct
4F4K_congruent,151,3,1,115,52.33,63.57,0.06,1.0,115,3034,Incorrect
4F4K_congruent,151,4,1,107,59.96,48.69,0.07,0.76,115,10270,Incorrect
4F4K_congruent,151,5,2,108,39.8,14.0,0.04,0.22,97,37344,Incorrect
4F4K_congruent,151,6,2,108,86.01,68.96,0.1,1.08,97,2701,Incorrect
4F4K_congruent,151,7,1,115,23.52,51.42,0.03,0.81,107,17408,Incorrect
4F4K_congruent,151,8,1,107,62.12,52.88,0.07,0.83,107,12055,Correct
4F4K_congruent,151,9,2,108,48.2,19.77,0.05,0.31,97,3599,Incorrect
4F4K_congruent,151,10,2,97,32.93,63.34,0.04,0.99,108,5880,Incorrect
4F4K_congruent,151,11,1,107,36.26,16.74,0.04,0.26,107,3963,Correct
4F4K_congruent,151,12,1,107,64.13,43.37,0.07,0.68,115,1156,Incorrect
4F4K_congruent,151,13,1,115,58.35,68.54,0.07,1.08,107,1530,Incorrect
4F4K_congruent,151,14,2,108,59.59,47.47,0.07,0.75,108,10209,Correct
4F4K_congruent,151,15,2,97,51.43,82.18,0.06,1.29,108,4377,Incorrect
4F4K_congruent,151,16,2,108,70.53,46.67,0.08,0.73,97,2167,Incorrect
4F4K_congruent,151,17,2,108,41.35,25.63,0.05,0.4,97,7019,Incorrect
4F4K_congruent,151,18,2,108,51.21,38.47,0.06,0.6,108,2672,Correct
4F4K_congruent,151,19,2,108,71.76,42.36,0.08,0.67,97,4663,Incorrect
4F4K_congruent,151,20,2,108,73.31,54.87,0.08,0.86,108,1830,Correct
4F4K_congruent,151,21,2,97,15.05,43.15,0.02,0.68,108,11571,Incorrect
4F4K_congruent,151,22,2,108,49.66,20.16,0.06,0.32,97,2149,Incorrect
4F4K_congruent,151,23,2,97,58.5,76.86,0.07,1.21,108,912,Incorrect
4F4K_congruent,151,24,2,97,38.19,68.92,0.04,1.08,97,1048,Correct
4F4K_congruent,151,25,1,107,51.62,40.19,0.06,0.63,107,8901,Correct
4F4K_congruent,151,26,1,115,62.24,85.81,0.07,1.35,115,2843,Correct
4F4K_congruent,151,27,1,115,59.56,85.72,0.07,1.35,115,1181,Correct
4F4K_congruent,151,28,2,97,68.46,87.2,0.08,1.37,97,2750,Correct
4F4K_congruent,151,29,1,107,56.44,34.34,0.06,0.54,107,2352,Correct
4F4K_congruent,151,30,2,108,52.93,42.79,0.06,0.67,108,1559,Correct
4F4K_congruent,151,31,2,97,60.69,82.78,0.07,1.3,108,778,Incorrect
4F4K_congruent,151,32,1,107,72.29,47.7,0.08,0.75,107,3107,Correct
4F4K_congruent,151,33,1,107,81.95,63.08,0.09,0.99,107,780,Correct
4F4K_congruent,151,34,2,108,75.15,59.29,0.08,0.93,97,2332,Incorrect
4F4K_congruent,151,35,1,107,54.26,27.08,0.06,0.43,107,1867,Correct
4F4K_congruent,151,36,2,108,80.52,53.56,0.09,0.84,108,1144,Correct
4F4K_congruent,151,37,1,115,35.43,67.04,0.04,1.05,115,1160,Correct
4F4K_congruent,151,38,2,108,47.26,16.99,0.05,0.27,108,1999,Correct
4F4K_congruent,151,39,1,107,42.5,22.18,0.05,0.35,115,3109,Incorrect
4F4K_congruent,151,40,2,108,65.2,32.79,0.07,0.52,108,1243,Correct
4F4K_congruent,151,41,1,115,54.33,63.3,0.06,0.99,107,1673,Incorrect
4F4K_congruent,151,42,2,97,45.96,63.41,0.05,1.0,108,2507,Incorrect
4F4K_congruent,151,43,1,115,17.76,43.53,0.02,0.68,115,1493,Correct
4F4K_congruent,151,44,2,97,35.65,50.24,0.04,0.79,97,1930,Correct
4F4K_congruent,151,45,2,97,50.47,76.96,0.06,1.21,108,1244,Incorrect
4F4K_congruent,151,46,2,97,11.59,31.72,0.01,0.5,97,1460,Correct
4F4K_congruent,151,47,2,108,54.12,40.75,0.06,0.64,108,2685,Correct
4F4K_congruent,151,48,1,115,29.49,52.5,0.03,0.82,115,1018,Correct
4F4K_congruent,151,49,2,108,49.7,22.7,0.06,0.36,108,1479,Correct
4F4K_congruent,151,50,2,97,47.8,67.22,0.05,1.06,108,1045,Incorrect
4F4K_congruent,151,51,2,108,55.96,34.01,0.06,0.53,108,6153,Correct
4F4K_congruent,151,52,1,107,57.12,26.42,0.06,0.42,107,2283,Correct
4F4K_congruent,151,53,1,107,74.79,48.37,0.08,0.76,107,3591,Correct
4F4K_congruent,151,54,2,97,38.35,61.97,0.04,0.97,97,1928,Correct
4F4K_congruent,151,55,2,108,33.86,15.15,0.04,0.24,97,2610,Incorrect
4F4K_congruent,151,56,2,97,41.03,63.05,0.05,0.99,97,2106,Correct
4F4K_congruent,151,57,2,97,29.62,41.48,0.03,0.65,97,2031,Correct
4F4K_congruent,151,58,2,108,40.61,21.58,0.05,0.34,108,7914,Correct
4F4K_congruent,151,59,2,108,61.49,53.08,0.07,0.83,97,1562,Incorrect
4F4K_congruent,151,60,2,108,58.48,29.55,0.07,0.46,108,2288,Correct
4F4K_congruent,151,61,1,107,62.04,41.98,0.07,0.66,107,8086,Correct
4F4K_congruent,151,62,2,97,59.43,73.85,0.07,1.16,97,2949,Correct
4F4K_congruent,151,63,1,107,74.46,48.13,0.08,0.76,107,1560,Correct
4F4K_congruent,151,64,1,107,38.77,23.68,0.04,0.37,115,1363,Incorrect
4F4K_congruent,151,65,2,97,32.07,48.45,0.04,0.76,108,2927,Incorrect
4F4K_congruent,151,66,2,97,49.02,73.78,0.05,1.16,97,1827,Correct
4F4K_congruent,151,67,2,97,38.08,65.35,0.04,1.03,97,3579,Correct
4F4K_congruent,151,68,2,97,30.19,48.04,0.03,0.75,108,3570,Incorrect
4F4K_congruent,151,69,2,108,59.55,39.38,0.07,0.62,108,1711,Correct
4F4K_congruent,151,70,2,108,54.31,25.26,0.06,0.4,108,1109,Correct
4F4K_congruent,151,71,2,97,14.81,40.96,0.02,0.64,97,1291,Correct
4F4K_congruent,151,72,2,108,85.41,68.21,0.1,1.07,108,1676,Correct
4F4K_congruent,151,73,2,108,65.6,32.59,0.07,0.51,108,1864,Correct
4F4K_congruent,151,74,2,97,65.08,82.9,0.07,1.3,97,1739,Correct
4F4K_congruent,151,75,1,115,52.27,70.76,0.06,1.11,107,2263,Incorrect
4F4K_congruent,151,76,2,97,45.27,59.69,0.05,0.94,108,3817,Incorrect
4F4K_congruent,151,77,2,108,44.02,25.96,0.05,0.41,108,1347,Correct
4F4K_congruent,151,78,1,115,26.31,47.11,0.03,0.74,115,990,Correct
4F4K_congruent,151,79,1,107,47.24,28.89,0.05,0.45,107,944,Correct
4F4K_congruent,151,80,2,97,68.49,88.06,0.08,1.38,97,1289,Correct
4F4K_congruent,151,81,2,97,44.24,52.75,0.05,0.83,108,2237,Incorrect
4F4K_congruent,151,82,2,108,78.3,48.68,0.09,0.76,108,1088,Correct
4F4K_congruent,151,83,2,97,54.94,75.41,0.06,1.18,97,6048,Correct
4F4K_congruent,151,84,1,107,52.26,25.84,0.06,0.41,107,3729,Correct
4F4K_congruent,151,85,2,108,65.2,38.22,0.07,0.6,108,4779,Correct
4F4K_congruent,151,86,2,108,33.54,20.91,0.04,0.33,97,1192,Incorrect
4F4K_congruent,151,87,1,115,21.78,34.04,0.02,0.53,115,1226,Correct
4F4K_congruent,151,88,2,97,50.5,58.57,0.06,0.92,108,3427,Incorrect
4F4K_congruent,151,89,1,107,38.28,21.8,0.04,0.34,115,956,Incorrect
4F4K_congruent,151,90,2,97,43.99,74.0,0.05,1.16,97,2161,Correct
4F4K_congruent,151,91,2,97,36.36,52.74,0.04,0.83,108,10802,Incorrect
4F4K_congruent,151,92,1,107,50.71,19.64,0.06,0.31,107,895,Correct
4F4K_congruent,151,93,1,115,21.04,49.97,0.02,0.78,115,1058,Correct
4F4K_congruent,151,94,1,115,28.13,37.98,0.03,0.6,107,3703,Incorrect
4F4K_congruent,151,95,1,107,57.06,34.54,0.06,0.54,107,1572,Correct
4F4K_congruent,151,96,1,107,88.08,67.23,0.1,1.06,107,4805,Correct
4F4K_congruent,151,97,1,107,81.04,57.87,0.09,0.91,107,890,Correct
4F4K_congruent,151,98,1,107,35.62,19.71,0.04,0.31,115,1106,Incorrect
4F4K_congruent,151,99,2,97,40.1,54.09,0.04,0.85,108,6688,Incorrect
4F4K_congruent,151,100,2,108,66.58,56.11,0.07,0.88,108,1136,Correct
4F4K_congruent,151,101,2,97,20.59,48.6,0.02,0.76,97,1009,Correct
4F4K_congruent,151,102,2,108,45.61,34.03,0.05,0.53,108,1068,Correct
4F4K_congruent,151,103,2,97,38.57,64.75,0.04,1.02,97,1564,Correct
4F4K_congruent,151,104,1,115,58.49,74.09,0.07,1.16,107,1800,Incorrect
4F4K_congruent,151,105,2,108,75.87,44.0,0.08,0.69,108,953,Correct
4F4K_congruent,151,106,1,115,52.66,59.97,0.06,0.94,107,838,Incorrect
4F4K_congruent,151,107,2,97,41.42,61.39,0.05,0.96,108,1372,Incorrect
4F4K_congruent,151,108,1,107,68.0,45.77,0.08,0.72,107,1011,Correct
4F4K_congruent,151,109,1,107,66.44,43.86,0.07,0.69,107,673,Correct
4F4K_congruent,151,110,2,97,63.6,89.23,0.07,1.4,97,1123,Correct
4F4K_congruent,151,111,2,97,40.79,63.77,0.05,1.0,97,1179,Correct
4F4K_congruent,151,112,2,108,34.59,12.79,0.04,0.2,97,937,Incorrect
4F4K_congruent,151,113,1,107,80.38,59.55,0.09,0.94,107,716,Correct
4F4K_congruent,151,114,2,108,61.37,35.79,0.07,0.56,108,678,Correct
4F4K_congruent,151,115,2,108,61.85,48.02,0.07,0.75,108,2019,Correct
4F4K_congruent,151,116,1,115,62.45,82.88,0.07,1.3,115,1655,Correct
4F4K_congruent,151,117,1,107,62.7,29.62,0.07,0.47,107,1219,Correct
4F4K_congruent,151,118,2,108,34.12,11.71,0.04,0.18,97,863,Incorrect
4F4K_congruent,151,119,2,97,22.74,43.41,0.03,0.68,108,1640,Incorrect
4F4K_congruent,151,120,1,115,42.49,66.61,0.05,1.05,115,1485,Correct
4F4K_congruent,151,121,2,108,55.65,30.45,0.06,0.48,108,1695,Correct
4F4K_congruent,151,122,2,97,11.15,31.55,0.01,0.5,97,772,Correct
4F4K_congruent,151,123,2,97,42.32,51.94,0.05,0.82,108,3646,Incorrect
4F4K_congruent,151,124,2,108,51.56,21.9,0.06,0.34,108,734,Correct
4F4K_congruent,151,125,2,108,74.29,45.19,0.08,0.71,108,2074,Correct
4F4K_congruent,151,126,1,115,55.71,71.95,0.06,1.13,115,1916,Correct
4F4K_congruent,151,127,1,115,35.36,60.16,0.04,0.95,107,8819,Incorrect
4F4K_congruent,151,128,1,115,26.8,57.52,0.03,0.9,107,1081,Incorrect
4F4K_congruent,151,129,1,115,28.53,42.67,0.03,0.67,107,1429,Incorrect
4F4K_congruent,151,130,2,108,84.38,56.64,0.09,0.89,108,904,Correct
4F4K_congruent,151,131,2,97,38.34,65.32,0.04,1.03,108,2303,Incorrect
4F4K_congruent,151,132,1,115,46.14,53.92,0.05,0.85,107,768,Incorrect
4F4K_congruent,151,133,2,108,35.73,25.83,0.04,0.41,97,1188,Incorrect
4F4K_congruent,151,134,1,115,27.1,60.16,0.03,0.95,115,2653,Correct
4F4K_congruent,151,135,1,115,37.02,56.0,0.04,0.88,107,1541,Incorrect
4F4K_congruent,151,136,1,107,40.76,14.48,0.05,0.23,107,906,Correct
4F4K_congruent,151,137,2,108,81.71,60.91,0.09,0.96,108,1176,Correct
4F4K_congruent,151,138,1,115,54.05,81.15,0.06,1.27,115,1533,Correct
4F4K_congruent,151,139,2,97,47.74,65.59,0.05,1.03,108,1132,Incorrect
4F4K_congruent,151,140,1,107,44.08,20.18,0.05,0.32,107,966,Correct
4F4K_congruent,151,141,1,107,60.79,50.26,0.07,0.79,107,737,Correct
4F4K_congruent,151,142,2,97,22.2,37.17,0.02,0.58,97,814,Correct
4F4K_congruent,151,143,2,97,26.18,50.64,0.03,0.8,97,937,Correct
4F4K_congruent,151,144,1,115,24.3,56.51,0.03,0.89,115,1353,Correct
4F4K_congruent,151,145,1,115,27.08,48.86,0.03,0.77,107,1566,Incorrect
4F4K_congruent,151,146,2,108,64.27,36.31,0.07,0.57,108,896,Correct
4F4K_congruent,151,147,1,115,43.89,53.09,0.05,0.83,107,1440,Incorrect
4F4K_congruent,151,148,1,107,54.35,23.35,0.06,0.37,107,716,Correct
4F4K_congruent,151,149,1,115,23.58,40.27,0.03,0.63,115,897,Correct
4F4K_congruent,151,150,2,97,11.95,31.4,0.01,0.49,97,734,Correct
4F4K_congruent,151,151,1,107,65.94,48.44,0.07,0.76,107,549,Correct
4F4K_congruent,151,152,1,115,57.66,65.58,0.06,1.03,115,2164,Correct
4F4K_congruent,151,153,2,108,59.15,38.36,0.07,0.6,108,1296,Correct
4F4K_congruent,151,154,1,115,31.7,51.92,0.04,0.82,115,1456,Correct
4F4K_congruent,151,155,1,107,38.68,12.19,0.04,0.19,107,2191,Correct
4F4K_congruent,151,156,2,97,30.02,48.71,0.03,0.77,97,1775,Correct
4F4K_congruent,151,157,1,107,85.46,56.03,0.1,0.88,107,1909,Correct
4F4K_congruent,151,158,2,108,78.48,66.14,0.09,1.04,97,942,Incorrect
4F4K_congruent,151,159,2,108,73.6,49.81,0.08,0.78,108,1205,Correct
4F4K_congruent,151,160,2,97,46.47,55.3,0.05,0.87,97,3738,Correct
4F4K_congruent,151,161,2,97,48.13,59.73,0.05,0.94,97,1117,Correct
4F4K_congruent,151,162,1,107,53.77,24.35,0.06,0.38,107,812,Correct
4F4K_congruent,151,163,1,107,67.42,35.6,0.08,0.56,107,686,Correct
4F4K_congruent,151,164,1,107,88.14,69.79,0.1,1.1,107,1366,Correct
4F4K_congruent,151,165,1,115,31.81,45.2,0.04,0.71,115,1540,Correct
4F4K_congruent,151,166,1,115,29.2,45.2,0.03,0.71,115,1592,Correct
4F4K_congruent,151,167,1,115,43.0,53.55,0.05,0.84,115,973,Correct
4F4K_congruent,151,168,2,97,56.33,84.54,0.06,1.33,97,972,Correct
4F4K_congruent,151,169,2,108,77.84,46.66,0.09,0.73,108,950,Correct
4F4K_congruent,151,170,1,115,31.92,54.76,0.04,0.86,115,1135,Correct
4F4K_congruent,151,171,1,107,61.85,52.22,0.07,0.82,107,574,Correct
4F4K_congruent,151,172,2,97,29.18,47.28,0.03,0.74,97,2533,Correct
4F4K_congruent,151,173,1,115,61.33,74.07,0.07,1.16,115,1078,Correct
4F4K_congruent,151,174,2,97,35.48,54.15,0.04,0.85,97,1806,Correct
4F4K_congruent,151,175,1,107,49.59,36.36,0.06,0.57,107,887,Correct
4F4K_congruent,151,176,2,108,65.38,36.97,0.07,0.58,108,844,Correct
4F4K_congruent,151,177,2,97,65.46,86.75,0.07,1.36,97,641,Correct
4F4K_congruent,151,178,1,107,63.66,36.0,0.07,0.57,107,553,Correct
4F4K_congruent,151,179,2,97,54.33,80.66,0.06,1.27,97,829,Correct
4F4K_congruent,151,180,1,115,53.43,71.96,0.06,1.13,115,2892,Correct
4F4K_congruent,151,181,2,108,61.77,34.75,0.07,0.55,108,1465,Correct
4F4K_congruent,151,182,1,115,42.58,73.64,0.05,1.16,115,730,Correct
4F4K_congruent,151,183,2,97,63.16,73.76,0.07,1.16,97,1624,Correct
4F4K_congruent,151,184,1,107,51.4,41.15,0.06,0.65,107,795,Correct
4F4K_congruent,151,185,2,97,36.51,62.24,0.04,0.98,97,837,Correct
4F4K_congruent,151,186,2,97,29.07,51.14,0.03,0.8,97,954,Correct
4F4K_congruent,151,187,2,108,36.57,22.85,0.04,0.36,97,5345,Incorrect
4F4K_congruent,151,188,2,97,33.39,49.02,0.04,0.77,97,1096,Correct
4F4K_congruent,151,189,1,115,64.89,80.81,0.07,1.27,115,1285,Correct
4F4K_congruent,151,190,1,115,65.58,79.05,0.07,1.24,115,917,Correct
4F4K_congruent,151,191,1,107,63.95,43.76,0.07,0.69,107,1162,Correct
4F4K_congruent,151,192,2,97,57.86,69.53,0.06,1.09,97,820,Correct
4F4K_congruent,151,193,2,108,79.21,54.33,0.09,0.85,108,699,Correct
4F4K_congruent,151,194,2,108,46.15,17.21,0.05,0.27,97,771,Incorrect
4F4K_congruent,151,195,1,115,28.85,51.36,0.03,0.81,115,1274,Correct
4F4K_congruent,151,196,1,107,62.14,39.44,0.07,0.62,107,778,Correct
4F4K_congruent,151,197,1,107,85.83,62.7,0.1,0.98,107,730,Correct
4F4K_congruent,151,198,2,108,62.85,41.89,0.07,0.66,108,533,Correct
4F4K_congruent,151,199,1,115,55.86,74.24,0.06,1.17,115,795,Correct
4F4K_congruent,151,200,2,97,25.09,41.98,0.03,0.66,97,2357,Correct
4F4K_congruent,151,201,2,97,29.79,43.64,0.03,0.69,97,2409,Correct
4F4K_congruent,151,202,2,108,45.7,35.99,0.05,0.57,108,1287,Correct
4F4K_congruent,151,203,2,108,58.38,41.69,0.07,0.65,108,600,Correct
4F4K_congruent,151,204,2,97,45.3,61.2,0.05,0.96,97,719,Correct
4F4K_congruent,151,205,2,108,38.44,21.8,0.04,0.34,97,1232,Incorrect
4F4K_congruent,151,206,2,97,37.57,65.36,0.04,1.03,108,2068,Incorrect
4F4K_congruent,151,207,2,108,80.0,62.92,0.09,0.99,108,944,Correct
4F4K_congruent,151,208,2,97,56.43,64.25,0.06,1.01,108,787,Incorrect
4F4K_congruent,151,209,2,108,75.24,61.21,0.08,0.96,108,746,Correct
4F4K_congruent,151,210,1,107,50.96,30.71,0.06,0.48,107,654,Correct
4F4K_congruent,151,211,2,108,58.08,42.58,0.06,0.67,108,569,Correct
4F4K_congruent,151,212,1,115,60.62,72.05,0.07,1.13,107,1239,Incorrect
4F4K_congruent,151,213,1,107,48.64,25.6,0.05,0.4,107,717,Correct
4F4K_congruent,151,214,1,115,53.71,70.79,0.06,1.11,107,1287,Incorrect
4F4K_congruent,151,215,1,107,49.18,18.65,0.06,0.29,107,1225,Correct
4F4K_congruent,151,216,2,108,40.98,14.4,0.05,0.23,97,1709,Incorrect
4F4K_congruent,151,217,1,107,53.62,31.1,0.06,0.49,107,665,Correct
4F4K_congruent,151,218,2,108,40.9,24.82,0.05,0.39,108,1276,Correct
4F4K_congruent,151,219,2,108,75.37,49.04,0.08,0.77,108,740,Correct
4F4K_congruent,151,220,2,108,65.11,51.72,0.07,0.81,108,1003,Correct
4F4K_congruent,151,221,1,107,56.11,30.86,0.06,0.48,107,1345,Correct
4F4K_congruent,151,222,2,97,38.87,49.39,0.04,0.78,108,3878,Incorrect
4F4K_congruent,151,223,1,115,65.66,87.51,0.07,1.37,107,2863,Incorrect
4F4K_congruent,151,224,2,108,70.76,52.32,0.08,0.82,108,1173,Correct
4F4K_congruent,151,225,2,108,73.33,47.92,0.08,0.75,108,1093,Correct
4F4K_congruent,151,226,2,97,46.9,75.44,0.05,1.19,97,1136,Correct
4F4K_congruent,151,227,2,108,83.3,65.89,0.09,1.03,108,1688,Correct
4F4K_congruent,151,228,1,107,61.6,41.5,0.07,0.65,107,1137,Correct
4F4K_congruent,151,229,2,108,80.53,63.79,0.09,1.0,108,1328,Correct
4F4K_congruent,151,230,1,107,74.62,64.33,0.08,1.01,107,516,Correct
4F4K_congruent,151,231,2,97,27.48,58.23,0.03,0.91,97,1258,Correct
4F4K_congruent,151,232,1,115,19.4,35.25,0.02,0.55,115,3123,Correct
4F4K_congruent,151,233,1,115,66.0,89.19,0.07,1.4,115,2676,Correct
4F4K_congruent,151,234,2,97,64.8,86.74,0.07,1.36,108,1497,Incorrect
4F4K_congruent,151,235,1,107,34.66,12.41,0.04,0.19,115,1221,Incorrect
4F4K_congruent,151,236,1,107,42.2,21.53,0.05,0.34,115,1498,Incorrect
4F4K_congruent,151,237,2,97,13.19,40.42,0.01,0.63,97,1064,Correct
4F4K_congruent,151,238,2,97,58.73,81.92,0.07,1.29,97,2078,Correct
4F4K_congruent,151,239,1,115,29.8,52.77,0.03,0.83,115,1866,Correct
4F4K_congruent,151,240,2,97,53.29,69.12,0.06,1.09,108,1782,Incorrect
4F4K_congruent,151,241,1,115,43.82,69.8,0.05,1.1,115,1104,Correct
4F4K_congruent,151,242,2,97,58.44,75.8,0.07,1.19,97,912,Correct
4F4K_congruent,151,243,1,115,49.39,66.54,0.06,1.05,107,2032,Incorrect
4F4K_congruent,151,244,2,108,40.19,24.13,0.04,0.38,108,1659,Correct
4F4K_congruent,151,245,2,108,47.22,39.13,0.05,0.61,108,667,Correct
4F4K_congruent,151,246,2,97,34.0,42.11,0.04,0.66,108,1086,Incorrect
4F4K_congruent,151,247,1,107,52.1,39.38,0.06,0.62,107,1510,Correct
4F4K_congruent,151,248,1,107,72.6,48.47,0.08,0.76,107,778,Correct
4F4K_congruent,151,249,2,108,70.4,56.43,0.08,0.89,108,704,Correct
4F4K_congruent,151,250,2,108,54.52,42.06,0.06,0.66,108,1374,Correct
4F4K_congruent,151,251,1,107,65.98,47.45,0.07,0.75,107,1289,Correct
4F4K_congruent,151,252,1,115,29.82,56.61,0.03,0.89,107,2398,Incorrect
4F4K_congruent,151,253,2,97,37.66,48.02,0.04,0.75,97,1795,Correct
4F4K_congruent,151,254,1,107,52.9,28.51,0.06,0.45,107,1665,Correct
4F4K_congruent,151,255,1,115,55.29,71.12,0.06,1.12,107,1655,Incorrect
4F4K_congruent,151,256,1,115,56.69,75.39,0.06,1.18,115,1869,Correct
4F4K_congruent,151,257,2,97,57.18,77.33,0.06,1.21,97,1031,Correct
4F4K_congruent,151,258,1,107,87.37,66.05,0.1,1.04,107,887,Correct
4F4K_congruent,151,259,2,97,44.75,75.89,0.05,1.19,97,859,Correct
4F4K_congruent,151,260,2,108,82.04,57.03,0.09,0.9,108,2019,Correct
4F4K_congruent,151,261,2,108,53.7,33.34,0.06,0.52,108,2462,Correct
4F4K_congruent,151,262,1,115,50.38,68.59,0.06,1.08,107,4196,Incorrect
4F4K_congruent,151,263,1,107,45.83,34.82,0.05,0.55,107,1371,Correct
4F4K_congruent,151,264,1,107,72.6,44.46,0.08,0.7,107,621,Correct
4F4K_congruent,151,265,2,97,26.46,37.23,0.03,0.58,97,2062,Correct
4F4K_congruent,151,266,2,97,15.47,35.94,0.02,0.56,97,655,Correct
4F4K_congruent,151,267,2,97,39.96,67.88,0.04,1.07,97,1003,Correct
4F4K_congruent,151,268,1,115,49.51,79.96,0.06,1.26,107,1935,Incorrect
4F4K_congruent,151,269,2,97,55.87,67.51,0.06,1.06,108,1781,Incorrect
4F4K_congruent,151,270,2,97,54.55,83.9,0.06,1.32,97,812,Correct
4F4K_congruent,151,271,1,107,36.69,16.0,0.04,0.25,107,2120,Correct
4F4K_congruent,151,272,1,115,50.17,76.93,0.06,1.21,115,886,Correct
4F4K_congruent,151,273,2,97,33.89,62.42,0.04,0.98,97,924,Correct
4F4K_congruent,151,274,2,108,71.01,59.48,0.08,0.93,108,774,Correct
4F4K_congruent,151,275,2,108,44.18,16.95,0.05,0.27,97,1533,Incorrect
4F4K_congruent,151,276,1,107,85.03,58.67,0.1,0.92,107,679,Correct
4F4K_congruent,151,277,1,115,59.56,87.05,0.07,1.37,107,2588,Incorrect
4F4K_congruent,151,278,1,115,47.64,55.3,0.05,0.87,107,745,Incorrect
4F4K_congruent,151,279,1,107,54.35,40.86,0.06,0.64,107,787,Correct
4F4K_congruent,151,280,1,115,24.71,42.04,0.03,0.66,115,1732,Correct
4F4K_congruent,151,281,2,97,16.87,42.09,0.02,0.66,97,709,Correct
4F4K_congruent,151,282,1,115,28.67,53.18,0.03,0.84,115,3018,Correct
4F4K_congruent,151,283,2,97,22.44,37.75,0.03,0.59,97,864,Correct
4F4K_congruent,151,284,1,115,24.86,45.33,0.03,0.71,115,1768,Correct
4F4K_congruent,151,285,2,108,65.9,56.45,0.07,0.89,108,703,Correct
4F4K_congruent,151,286,2,97,36.75,58.03,0.04,0.91,97,1090,Correct
4F4K_congruent,151,287,1,115,12.65,35.99,0.01,0.57,115,772,Correct
4F4K_congruent,151,288,2,108,65.19,35.93,0.07,0.56,108,567,Correct
4F4K_congruent,151,289,1,115,30.44,49.79,0.03,0.78,115,2119,Correct
4F4K_congruent,151,290,2,108,58.15,27.95,0.07,0.44,108,663,Correct
4F4K_congruent,151,291,1,115,52.96,81.0,0.06,1.27,115,864,Correct
4F4K_congruent,151,292,1,115,19.58,34.47,0.02,0.54,115,730,Correct
4F4K_congruent,151,293,1,107,64.68,53.1,0.07,0.83,107,625,Correct
4F4K_congruent,151,294,1,107,60.23,49.96,0.07,0.78,107,613,Correct
4F4K_congruent,151,295,1,107,44.79,29.85,0.05,0.47,107,889,Correct
4F4K_congruent,151,296,2,97,44.6,64.22,0.05,1.01,97,881,Correct
4F4K_congruent,151,297,2,108,34.41,13.81,0.04,0.22,108,786,Correct
4F4K_congruent,151,298,2,97,44.05,62.39,0.05,0.98,97,1185,Correct
4F4K_congruent,151,299,1,107,39.93,19.22,0.04,0.3,107,884,Correct
4F4K_congruent,151,300,2,97,23.24,47.26,0.03,0.74,97,639,Correct
4F4K_congruent,151,301,1,115,31.38,46.4,0.04,0.73,115,1082,Correct
4F4K_congruent,151,302,2,108,48.42,32.77,0.05,0.51,108,688,Correct
4F4K_congruent,151,303,2,97,37.02,53.14,0.04,0.83,97,672,Correct
4F4K_congruent,151,304,1,107,30.93,15.33,0.03,0.24,115,887,Incorrect
4F4K_congruent,151,305,1,107,51.14,41.25,0.06,0.65,107,560,Correct
4F4K_congruent,151,306,2,108,46.14,36.59,0.05,0.57,108,576,Correct
4F4K_congruent,151,307,1,107,75.45,58.08,0.08,0.91,107,706,Correct
4F4K_congruent,151,308,1,115,52.99,62.33,0.06,0.98,115,1508,Correct
4F4K_congruent,151,309,1,115,45.9,54.99,0.05,0.86,107,833,Incorrect
4F4K_congruent,151,310,1,107,61.43,47.5,0.07,0.75,107,589,Correct
4F4K_congruent,151,311,2,108,74.6,61.33,0.08,0.96,108,657,Correct
4F4K_congruent,151,312,1,107,33.14,20.1,0.04,0.32,115,1193,Incorrect
4F4K_congruent,151,313,1,107,65.41,49.59,0.07,0.78,107,581,Correct
4F4K_congruent,151,314,2,97,12.9,30.76,0.01,0.48,97,567,Correct
4F4K_congruent,151,315,2,108,34.43,10.51,0.04,0.17,97,737,Incorrect
4F4K_congruent,151,316,1,107,35.02,21.81,0.04,0.34,107,1298,Correct
4F4K_congruent,151,317,2,108,78.01,55.2,0.09,0.87,108,665,Correct
4F4K_congruent,151,318,2,108,63.0,40.17,0.07,0.63,108,584,Correct
4F4K_congruent,151,319,1,107,84.95,64.25,0.1,1.01,107,544,Correct
4F4K_congruent,151,320,2,108,48.8,24.38,0.05,0.38,108,826,Correct
4F4K_congruent,151,321,2,108,53.8,44.48,0.06,0.7,108,674,Correct
4F4K_congruent,151,322,1,115,27.06,59.59,0.03,0.94,107,1533,Incorrect
4F4K_congruent,151,323,2,97,41.81,59.39,0.05,0.93,108,3314,Incorrect
4F4K_congruent,151,324,2,97,65.99,77.26,0.07,1.21,108,666,Incorrect
4F4K_congruent,151,325,1,107,57.13,28.42,0.06,0.45,107,627,Correct
4F4K_congruent,151,326,2,108,73.9,62.93,0.08,0.99,108,684,Correct
4F4K_congruent,151,327,1,115,64.44,88.4,0.07,1.39,115,2809,Correct
4F4K_congruent,151,328,1,107,75.06,62.21,0.08,0.98,107,692,Correct
4F4K_congruent,151,329,1,115,23.24,35.57,0.03,0.56,115,1547,Correct
4F4K_congruent,151,330,2,108,65.82,44.28,0.07,0.7,108,711,Correct
4F4K_congruent,151,331,1,115,41.55,62.43,0.05,0.98,107,3065,Incorrect
4F4K_congruent,151,332,1,107,82.35,51.49,0.09,0.81,107,544,Correct
4F4K_congruent,151,333,2,108,41.57,23.04,0.05,0.36,97,2302,Incorrect
4F4K_congruent,151,334,1,107,57.62,36.9,0.06,0.58,107,423,Correct
4F4K_congruent,151,335,2,108,80.5,49.8,0.09,0.78,108,448,Correct
4F4K_congruent,151,336,1,107,54.84,42.64,0.06,0.67,107,730,Correct
4F4K_congruent,151,337,2,97,22.99,52.28,0.03,0.82,97,627,Correct
4F4K_congruent,151,338,1,115,59.58,71.75,0.07,1.13,107,1044,Incorrect
4F4K_congruent,151,339,1,107,46.37,25.26,0.05,0.4,107,2121,Correct
4F4K_congruent,151,340,2,108,70.25,40.96,0.08,0.64,108,636,Correct
4F4K_congruent,151,341,2,97,39.44,69.63,0.04,1.09,97,1416,Correct
4F4K_congruent,151,342,2,97,12.36,32.49,0.01,0.51,97,658,Correct
4F4K_congruent,151,343,2,108,52.28,23.9,0.06,0.38,108,1975,Correct
4F4K_congruent,151,344,1,115,26.89,50.35,0.03,0.79,115,3851,Correct
4F4K_congruent,151,345,2,97,52.18,59.86,0.06,0.94,108,603,Incorrect
4F4K_congruent,151,346,2,97,36.0,59.37,0.04,0.93,97,1192,Correct
4F4K_congruent,151,347,1,115,35.73,57.23,0.04,0.9,107,1963,Incorrect
4F4K_congruent,151,348,1,107,55.88,44.11,0.06,0.69,107,658,Correct
4F4K_congruent,151,349,2,108,61.77,36.53,0.07,0.57,108,551,Correct
4F4K_congruent,151,350,2,97,27.0,42.08,0.03,0.66,97,641,Correct
4F4K_congruent,151,351,1,115,43.65,69.28,0.05,1.09,115,1788,Correct
4F4K_congruent,151,352,2,97,43.38,65.22,0.05,1.02,97,917,Correct
4F4K_congruent,151,353,1,115,29.18,47.34,0.03,0.74,115,1472,Correct
4F4K_congruent,151,354,1,115,48.5,75.77,0.05,1.19,107,1741,Incorrect
4F4K_congruent,151,355,2,108,56.92,34.52,0.06,0.54,108,595,Correct
4F4K_congruent,151,356,2,108,79.23,57.09,0.09,0.9,108,898,Correct
4F4K_congruent,151,357,2,108,62.64,43.93,0.07,0.69,108,591,Correct
4F4K_congruent,151,358,1,115,43.87,73.87,0.05,1.16,115,851,Correct
4F4K_congruent,151,359,1,115,31.72,60.45,0.04,0.95,115,715,Correct
4F4K_congruent,151,360,2,108,37.16,17.72,0.04,0.28,97,2766,Incorrect
4F4K_congruent,151,361,1,115,23.97,51.74,0.03,0.81,115,1024,Correct
4F4K_congruent,151,362,2,108,52.36,20.73,0.06,0.33,108,638,Correct
4F4K_congruent,151,363,1,115,54.12,72.36,0.06,1.14,115,822,Correct
4F4K_congruent,151,364,1,115,29.09,56.2,0.03,0.88,115,620,Correct
4F4K_congruent,151,365,2,97,48.39,56.35,0.05,0.89,108,2766,Incorrect
4F4K_congruent,151,366,2,97,19.72,47.94,0.02,0.75,97,566,Correct
4F4K_congruent,151,367,1,115,64.13,85.27,0.07,1.34,115,876,Correct
4F4K_congruent,151,368,2,108,67.8,40.03,0.08,0.63,108,677,Correct
4F4K_congruent,151,369,2,108,50.66,34.75,0.06,0.55,108,662,Correct
4F4K_congruent,151,370,1,107,64.1,32.42,0.07,0.51,107,525,Correct
4F4K_congruent,151,371,2,97,67.13,88.84,0.08,1.4,97,1364,Correct
4F4K_congruent,151,372,2,108,43.56,15.87,0.05,0.25,97,1194,Incorrect
4F4K_congruent,151,373,2,108,65.11,46.24,0.07,0.73,108,429,Correct
4F4K_congruent,151,374,2,108,82.27,56.04,0.09,0.88,108,850,Correct
4F4K_congruent,151,375,1,115,41.69,59.04,0.05,0.93,107,2333,Incorrect
4F4K_congruent,151,376,1,115,33.98,52.97,0.04,0.83,115,931,Correct
4F4K_congruent,151,377,1,107,38.15,24.78,0.04,0.39,107,1263,Correct
4F4K_congruent,151,378,1,115,18.15,42.96,0.02,0.67,115,1139,Correct
4F4K_congruent,151,379,1,115,27.37,45.25,0.03,0.71,107,6478,Incorrect
4F4K_congruent,151,380,2,97,25.85,40.48,0.03,0.64,97,1983,Correct
4F4K_congruent,151,381,2,108,86.27,60.7,0.1,0.95,108,787,Correct
4F4K_congruent,151,382,1,107,61.23,29.76,0.07,0.47,107,1286,Correct
4F4K_congruent,151,383,1,107,43.27,31.94,0.05,0.5,107,563,Correct
4F4K_congruent,151,384,1,107,66.0,47.79,0.07,0.75,107,585,Correct
4F4K_congruent,151,385,2,108,50.22,38.42,0.06,0.6,108,616,Correct
4F4K_congruent,151,386,2,97,14.63,38.85,0.02,0.61,97,658,Correct
4F4K_congruent,151,387,1,115,18.13,34.15,0.02,0.54,115,1662,Correct
4F4K_congruent,151,388,2,97,43.93,60.14,0.05,0.94,97,1005,Correct
4F4K_congruent,151,389,1,115,23.2,49.77,0.03,0.78,115,1124,Correct
4F4K_congruent,151,390,1,115,14.84,40.46,0.02,0.64,115,626,Correct
4F4K_congruent,151,391,1,107,37.05,24.2,0.04,0.38,115,696,Incorrect
4F4K_congruent,151,392,1,107,65.14,42.14,0.07,0.66,107,591,Correct
4F4K_congruent,151,393,2,97,17.25,39.93,0.02,0.63,97,567,Correct
4F4K_congruent,151,394,1,115,45.04,73.89,0.05,1.16,107,1263,Incorrect
4F4K_congruent,151,395,2,97,32.47,61.32,0.04,0.96,97,838,Correct
4F4K_congruent,151,396,1,107,48.52,29.66,0.05,0.47,107,494,Correct
4F4K_congruent,151,397,2,108,43.21,31.27,0.05,0.49,108,767,Correct
4F4K_congruent,151,398,1,115,15.59,32.26,0.02,0.51,115,623,Correct
