condition,subject,trial,sub_task,cat,x,y,xt,yt,resp,rt,fb
4F4K_congruent,107,0,2,108,64.14,37.84,0.07,0.59,97,2767,Incorrect
4F4K_congruent,107,1,1,115,34.56,42.87,0.04,0.67,107,1054,Incorrect
4F4K_congruent,107,2,1,115,65.48,83.66,0.07,1.31,115,1535,Correct
4F4K_congruent,107,3,2,97,56.26,67.87,0.06,1.07,97,1464,Correct
4F4K_congruent,107,4,1,107,67.46,54.5,0.08,0.86,107,1758,Correct
4F4K_congruent,107,5,1,115,37.26,52.11,0.04,0.82,115,1104,Correct
4F4K_congruent,107,6,1,115,59.11,86.3,0.07,1.36,115,997,Correct
4F4K_congruent,107,7,2,97,57.56,74.86,0.06,1.18,108,923,Incorrect
4F4K_congruent,107,8,2,108,74.95,59.52,0.08,0.93,97,940,Incorrect
4F4K_congruent,107,9,1,115,65.1,79.15,0.07,1.24,115,712,Correct
4F4K_congruent,107,10,1,115,54.6,66.88,0.06,1.05,107,978,Incorrect
4F4K_congruent,107,11,2,108,55.36,42.43,0.06,0.67,97,889,Incorrect
4F4K_congruent,107,12,1,107,64.56,31.6,0.07,0.5,115,1206,Incorrect
4F4K_congruent,107,13,1,115,33.2,59.04,0.04,0.93,107,1040,Incorrect
4F4K_congruent,107,14,1,115,25.6,54.32,0.03,0.85,107,1303,Incorrect
4F4K_congruent,107,15,1,107,60.58,49.78,0.07,0.78,115,1438,Incorrect
4F4K_congruent,107,16,1,115,57.53,86.28,0.06,1.36,115,1039,Correct
4F4K_congruent,107,17,1,115,65.92,89.43,0.07,1.4,115,764,Correct
4F4K_congruent,107,18,2,108,56.77,27.43,0.06,0.43,108,1121,Correct
4F4K_congruent,107,19,1,107,70.36,41.78,0.08,0.66,115,1242,Incorrect
4F4K_congruent,107,20,1,107,51.61,29.5,0.06,0.46,115,1210,Incorrect
4F4K_congruent,107,21,2,108,63.7,48.14,0.07,0.76,97,1544,Incorrect
4F4K_congruent,107,22,2,97,27.83,60.58,0.03,0.95,108,1959,Incorrect
4F4K_congruent,107,23,2,97,56.92,85.31,0.06,1.34,97,2245,Correct
4F4K_congruent,107,24,1,115,24.7,49.83,0.03,0.78,107,967,Incorrect
4F4K_congruent,107,25,1,115,58.5,71.38,0.07,1.12,115,920,Correct
4F4K_congruent,107,26,1,107,41.75,25.69,0.05,0.4,107,816,Correct
4F4K_congruent,107,27,1,107,70.14,57.31,0.08,0.9,115,754,Incorrect
4F4K_congruent,107,28,2,97,46.71,63.26,0.05,0.99,108,1361,Incorrect
4F4K_congruent,107,29,1,107,76.06,51.55,0.09,0.81,115,1161,Incorrect
4F4K_congruent,107,30,2,108,86.65,63.41,0.1,1.0,97,967,Incorrect
4F4K_congruent,107,31,2,108,34.4,10.8,0.04,0.17,108,807,Correct
4F4K_congruent,107,32,1,107,69.3,46.36,0.08,0.73,107,1450,Correct
4F4K_congruent,107,33,1,107,74.43,61.14,0.08,0.96,107,1380,Correct
4F4K_congruent,107,34,1,107,69.13,45.16,0.08,0.71,107,1075,Correct
4F4K_congruent,107,35,2,108,47.23,20.81,0.05,0.33,108,1184,Correct
4F4K_congruent,107,36,1,107,42.17,26.16,0.05,0.41,107,1020,Correct
4F4K_congruent,107,37,1,115,28.07,54.11,0.03,0.85,115,1272,Correct
4F4K_congruent,107,38,2,97,49.92,62.69,0.06,0.98,97,1817,Correct
4F4K_congruent,107,39,1,107,50.23,20.43,0.06,0.32,107,956,Correct
4F4K_congruent,107,40,2,97,47.84,66.48,0.05,1.04,97,1301,Correct
4F4K_congruent,107,41,2,97,28.42,61.35,0.03,0.96,97,1158,Correct
4F4K_congruent,107,42,2,97,48.45,67.03,0.05,1.05,97,860,Correct
4F4K_congruent,107,43,1,115,63.43,76.55,0.07,1.2,115,793,Correct
4F4K_congruent,107,44,1,115,25.89,35.86,0.03,0.56,107,920,Incorrect
4F4K_congruent,107,45,1,107,50.74,26.48,0.06,0.42,115,1061,Incorrect
4F4K_congruent,107,46,1,115,54.99,69.03,0.06,1.08,115,835,Correct
4F4K_congruent,107,47,2,97,11.56,35.62,0.01,0.56,108,1190,Incorrect
4F4K_congruent,107,48,1,115,48.74,71.62,0.05,1.12,107,1066,Incorrect
4F4K_congruent,107,49,1,107,46.99,23.51,0.05,0.37,107,2380,Correct
4F4K_congruent,107,50,2,108,50.68,21.41,0.06,0.34,108,1388,Correct
4F4K_congruent,107,51,2,108,51.37,37.15,0.06,0.58,108,1186,Correct
4F4K_congruent,107,52,2,97,50.21,60.13,0.06,0.94,97,1176,Correct
4F4K_congruent,107,53,1,107,73.14,52.45,0.08,0.82,115,922,Incorrect
4F4K_congruent,107,54,1,107,66.19,36.37,0.07,0.57,115,1126,Incorrect
4F4K_congruent,107,55,2,108,35.27,22.07,0.04,0.35,108,861,Correct
4F4K_congruent,107,56,1,107,36.93,16.32,0.04,0.26,107,1628,Correct
4F4K_congruent,107,57,1,115,20.49,47.57,0.02,0.75,115,760,Correct
4F4K_congruent,107,58,2,108,73.79,59.48,0.08,0.93,108,892,Correct
4F4K_congruent,107,59,2,108,47.23,37.03,0.05,0.58,97,858,Correct
4F4K_congruent,107,60,1,115,46.93,60.51,0.05,0.95,115,1524,Correct
4F4K_congruent,107,61,1,115,33.72,56.6,0.04,0.89,115,991,Correct
4F4K_congruent,107,62,1,107,48.28,37.35,0.05,0.59,115,1625,Incorrect
4F4K_congruent,107,63,1,107,48.54,38.69,0.05,0.61,107,939,Correct
4F4K_congruent,107,64,2,97,25.96,46.8,0.03,0.74,97,2080,Correct
4F4K_congruent,107,65,2,108,33.53,17.62,0.04,0.28,97,1276,Incorrect
4F4K_congruent,107,66,2,108,87.87,66.44,0.1,1.04,108,1219,Correct
4F4K_congruent,107,67,1,115,49.48,57.51,0.06,0.9,107,2132,Incorrect
4F4K_congruent,107,68,2,108,37.96,14.45,0.04,0.23,97,1128,Incorrect
4F4K_congruent,107,69,1,115,56.67,64.92,0.06,1.02,115,1357,Correct
4F4K_congruent,107,70,2,97,39.95,58.92,0.04,0.93,108,1487,Incorrect
4F4K_congruent,107,71,2,108,61.92,30.29,0.07,0.48,97,2250,Incorrect
4F4K_congruent,107,72,1,115,46.99,69.65,0.05,1.09,107,2124,Incorrect
4F4K_congruent,107,73,1,115,63.39,80.86,0.07,1.27,115,933,Correct
4F4K_congruent,107,74,2,97,33.73,46.01,0.04,0.72,108,5130,Incorrect
4F4K_congruent,107,75,1,107,61.45,35.09,0.07,0.55,107,2839,Correct
4F4K_congruent,107,76,1,115,27.44,58.37,0.03,0.92,115,3948,Correct
4F4K_congruent,107,77,1,115,15.3,44.86,0.02,0.7,107,1751,Incorrect
4F4K_congruent,107,78,2,97,21.4,36.77,0.02,0.58,97,3163,Correct
4F4K_congruent,107,79,1,107,82.2,64.92,0.09,1.02,115,2215,Incorrect
4F4K_congruent,107,80,2,108,76.74,49.51,0.09,0.78,97,2031,Incorrect
4F4K_congruent,107,81,1,107,63.29,41.4,0.07,0.65,107,1863,Correct
4F4K_congruent,107,82,1,115,47.55,63.01,0.05,0.99,107,754,Incorrect
4F4K_congruent,107,83,2,97,56.41,75.83,0.06,1.19,97,2604,Correct
4F4K_congruent,107,84,1,107,64.94,53.41,0.07,0.84,107,1121,Correct
4F4K_congruent,107,85,2,108,76.15,57.15,0.09,0.9,108,1470,Correct
4F4K_congruent,107,86,2,97,50.8,59.01,0.06,0.93,97,1433,Correct
4F4K_congruent,107,87,2,108,49.37,22.69,0.06,0.36,108,1904,Correct
4F4K_congruent,107,88,2,108,71.52,39.2,0.08,0.62,97,2341,Incorrect
4F4K_congruent,107,89,1,115,36.28,55.36,0.04,0.87,107,1580,Incorrect
4F4K_congruent,107,90,1,115,60.05,70.91,0.07,1.11,107,2040,Incorrect
4F4K_congruent,107,91,2,108,60.59,43.79,0.07,0.69,108,2280,Correct
4F4K_congruent,107,92,2,97,32.33,51.0,0.04,0.8,97,2369,Correct
4F4K_congruent,107,93,1,115,40.08,72.55,0.04,1.14,115,4092,Correct
4F4K_congruent,107,94,1,107,83.38,69.11,0.09,1.09,115,2872,Incorrect
4F4K_congruent,107,95,2,97,61.3,72.68,0.07,1.14,108,2882,Incorrect
4F4K_congruent,107,96,1,115,44.88,71.04,0.05,1.12,107,2042,Incorrect
4F4K_congruent,107,97,1,107,82.53,63.09,0.09,0.99,107,1378,Correct
4F4K_congruent,107,98,2,97,41.13,48.68,0.05,0.76,97,1605,Correct
4F4K_congruent,107,99,1,107,65.29,51.46,0.07,0.81,107,3870,Correct
4F4K_congruent,107,100,1,115,47.52,62.31,0.05,0.98,115,1562,Correct
4F4K_congruent,107,101,1,115,47.94,54.93,0.05,0.86,107,3268,Incorrect
4F4K_congruent,107,102,2,97,65.13,82.94,0.07,1.3,97,2130,Correct
4F4K_congruent,107,103,2,97,48.65,66.1,0.05,1.04,108,1204,Incorrect
4F4K_congruent,107,104,1,107,65.16,57.1,0.07,0.9,107,1862,Correct
4F4K_congruent,107,105,2,97,44.21,53.8,0.05,0.85,97,3245,Correct
4F4K_congruent,107,106,1,107,76.78,46.47,0.09,0.73,107,2414,Correct
4F4K_congruent,107,107,1,107,65.68,52.17,0.07,0.82,107,1282,Correct
4F4K_congruent,107,108,2,108,79.21,48.82,0.09,0.77,97,2143,Incorrect
4F4K_congruent,107,109,1,115,58.87,81.62,0.07,1.28,115,1149,Correct
4F4K_congruent,107,110,2,108,51.84,28.61,0.06,0.45,108,3009,Correct
4F4K_congruent,107,111,2,108,57.23,37.34,0.06,0.59,108,1185,Correct
4F4K_congruent,107,112,1,115,40.32,69.45,0.05,1.09,115,1142,Correct
4F4K_congruent,107,113,2,108,49.04,21.93,0.05,0.34,97,5012,Incorrect
4F4K_congruent,107,114,2,97,54.76,83.48,0.06,1.31,108,3807,Incorrect
4F4K_congruent,107,115,2,108,49.29,26.06,0.06,0.41,97,779,Incorrect
4F4K_congruent,107,116,1,115,22.16,43.96,0.02,0.69,115,2838,Correct
4F4K_congruent,107,117,1,107,67.56,49.03,0.08,0.77,107,1389,Correct
4F4K_congruent,107,118,1,107,63.81,35.16,0.07,0.55,107,654,Correct
4F4K_congruent,107,119,2,108,84.43,67.77,0.09,1.06,108,1348,Correct
4F4K_congruent,107,120,1,115,43.11,74.07,0.05,1.16,115,999,Correct
4F4K_congruent,107,121,1,107,78.29,56.92,0.09,0.89,107,952,Correct
4F4K_congruent,107,122,1,107,42.27,34.06,0.05,0.53,115,632,Incorrect
4F4K_congruent,107,123,1,107,72.02,59.23,0.08,0.93,107,717,Correct
4F4K_congruent,107,124,1,115,57.49,75.12,0.06,1.18,107,1161,Incorrect
4F4K_congruent,107,125,1,107,63.19,35.06,0.07,0.55,107,671,Correct
4F4K_congruent,107,126,1,115,48.16,71.93,0.05,1.13,115,604,Correct
4F4K_congruent,107,127,2,97,32.59,45.74,0.04,0.72,97,3397,Correct
4F4K_congruent,107,128,2,108,82.64,55.93,0.09,0.88,108,1271,Correct
4F4K_congruent,107,129,1,107,87.25,60.27,0.1,0.95,107,932,Correct
4F4K_congruent,107,130,2,97,49.05,59.66,0.05,0.94,97,2126,Correct
4F4K_congruent,107,131,2,108,37.64,23.71,0.04,0.37,97,2439,Incorrect
4F4K_congruent,107,132,2,97,36.48,66.48,0.04,1.04,97,1316,Correct
4F4K_congruent,107,133,1,115,27.84,40.82,0.03,0.64,107,1059,Incorrect
4F4K_congruent,107,134,1,107,47.72,39.21,0.05,0.62,107,838,Correct
4F4K_congruent,107,135,1,115,48.06,64.51,0.05,1.01,107,1306,Incorrect
4F4K_congruent,107,136,2,108,58.64,35.33,0.07,0.55,97,1577,Incorrect
4F4K_congruent,107,137,2,108,71.33,41.74,0.08,0.66,108,709,Correct
4F4K_congruent,107,138,2,108,54.74,47.85,0.06,0.75,108,763,Correct
4F4K_congruent,107,139,2,108,88.71,68.53,0.1,1.08,108,1622,Correct
4F4K_congruent,107,140,2,97,66.62,80.69,0.07,1.27,108,1315,Incorrect
4F4K_congruent,107,141,2,108,73.98,60.02,0.08,0.94,108,713,Correct
4F4K_congruent,107,142,1,115,36.68,64.28,0.04,1.01,115,1273,Correct
4F4K_congruent,107,143,2,97,31.23,60.14,0.03,0.94,97,1958,Correct
4F4K_congruent,107,144,2,108,72.44,54.77,0.08,0.86,108,709,Correct
4F4K_congruent,107,145,2,97,24.38,51.3,0.03,0.81,97,983,Correct
4F4K_congruent,107,146,1,115,30.44,39.37,0.03,0.62,115,1192,Correct
4F4K_congruent,107,147,1,107,47.54,33.67,0.05,0.53,107,1201,Correct
4F4K_congruent,107,148,1,107,79.65,56.09,0.09,0.88,107,720,Correct
4F4K_congruent,107,149,2,108,77.25,65.84,0.09,1.03,108,1146,Correct
4F4K_congruent,107,150,2,97,18.51,37.19,0.02,0.58,97,684,Correct
4F4K_congruent,107,151,1,107,55.78,28.27,0.06,0.44,107,679,Correct
4F4K_congruent,107,152,1,115,39.86,49.29,0.04,0.77,115,830,Correct
4F4K_congruent,107,153,1,115,43.4,53.29,0.05,0.84,107,1022,Incorrect
4F4K_congruent,107,154,2,97,39.71,55.72,0.04,0.88,97,900,Correct
4F4K_congruent,107,155,2,97,35.01,62.13,0.04,0.98,97,603,Correct
4F4K_congruent,107,156,1,107,42.68,15.39,0.05,0.24,107,1000,Correct
4F4K_congruent,107,157,1,107,52.87,39.4,0.06,0.62,107,1662,Correct
4F4K_congruent,107,158,1,107,50.38,25.12,0.06,0.39,107,832,Correct
4F4K_congruent,107,159,2,108,46.69,20.59,0.05,0.32,108,1499,Correct
4F4K_congruent,107,160,1,107,76.92,45.75,0.09,0.72,107,874,Correct
4F4K_congruent,107,161,2,108,36.3,18.84,0.04,0.3,97,888,Incorrect
4F4K_congruent,107,162,2,97,68.51,82.98,0.08,1.3,108,1193,Incorrect
4F4K_congruent,107,163,1,115,31.4,62.72,0.04,0.99,115,774,Correct
4F4K_congruent,107,164,2,108,70.52,56.4,0.08,0.89,108,921,Correct
4F4K_congruent,107,165,1,115,43.6,58.78,0.05,0.92,115,792,Correct
4F4K_congruent,107,166,2,97,44.03,71.15,0.05,1.12,97,1694,Correct
4F4K_congruent,107,167,1,115,38.94,68.83,0.04,1.08,115,1463,Correct
4F4K_congruent,107,168,2,108,64.07,37.77,0.07,0.59,108,940,Correct
4F4K_congruent,107,169,2,97,32.5,57.62,0.04,0.91,97,868,Correct
4F4K_congruent,107,170,1,115,58.56,85.51,0.07,1.34,107,709,Incorrect
4F4K_congruent,107,171,1,107,43.76,18.03,0.05,0.28,107,848,Correct
4F4K_congruent,107,172,2,108,83.24,53.81,0.09,0.85,108,862,Correct
4F4K_congruent,107,173,1,107,74.56,45.44,0.08,0.71,107,735,Correct
4F4K_congruent,107,174,1,107,36.96,23.94,0.04,0.38,115,823,Incorrect
4F4K_congruent,107,175,1,107,68.91,46.31,0.08,0.73,107,894,Correct
4F4K_congruent,107,176,2,97,35.72,44.78,0.04,0.7,97,893,Correct
4F4K_congruent,107,177,1,115,31.21,58.54,0.03,0.92,115,1883,Correct
4F4K_congruent,107,178,2,97,58.27,74.97,0.07,1.18,108,2230,Incorrect
4F4K_congruent,107,179,2,108,67.26,54.25,0.08,0.85,108,662,Correct
4F4K_congruent,107,180,1,115,29.92,54.27,0.03,0.85,115,828,Correct
4F4K_congruent,107,181,2,108,46.71,17.91,0.05,0.28,108,1581,Correct
4F4K_congruent,107,182,1,107,85.16,58.41,0.1,0.92,107,1221,Correct
4F4K_congruent,107,183,1,115,48.48,66.11,0.05,1.04,115,1032,Correct
4F4K_congruent,107,184,2,108,47.66,37.98,0.05,0.6,108,2684,Correct
4F4K_congruent,107,185,2,108,73.85,42.66,0.08,0.67,108,850,Correct
4F4K_congruent,107,186,1,115,29.74,49.27,0.03,0.77,115,1101,Correct
4F4K_congruent,107,187,2,97,51.43,71.35,0.06,1.12,108,2138,Incorrect
4F4K_congruent,107,188,1,107,47.99,39.08,0.05,0.61,107,1064,Correct
4F4K_congruent,107,189,1,107,54.55,23.31,0.06,0.37,107,945,Correct
4F4K_congruent,107,190,1,115,50.41,58.06,0.06,0.91,107,726,Incorrect
4F4K_congruent,107,191,2,108,89.32,69.01,0.1,1.08,108,1176,Correct
4F4K_congruent,107,192,2,108,55.66,40.68,0.06,0.64,108,2816,Correct
4F4K_congruent,107,193,2,97,17.55,36.31,0.02,0.57,97,792,Correct
4F4K_congruent,107,194,2,97,14.4,41.05,0.02,0.64,97,680,Correct
4F4K_congruent,107,195,2,108,31.98,10.35,0.04,0.16,108,870,Correct
4F4K_congruent,107,196,2,108,69.71,40.0,0.08,0.63,108,891,Correct
4F4K_congruent,107,197,1,107,34.93,23.67,0.04,0.37,115,1079,Incorrect
4F4K_congruent,107,198,2,97,44.41,66.09,0.05,1.04,108,748,Incorrect
4F4K_congruent,107,199,1,107,38.47,28.63,0.04,0.45,115,1226,Incorrect
4F4K_congruent,107,200,2,97,52.88,83.21,0.06,1.31,108,1150,Incorrect
4F4K_congruent,107,201,1,107,77.74,59.52,0.09,0.93,107,1215,Correct
4F4K_congruent,107,202,2,97,13.99,42.25,0.02,0.66,97,650,Correct
4F4K_congruent,107,203,1,115,32.36,64.87,0.04,1.02,115,1035,Correct
4F4K_congruent,107,204,2,97,67.69,82.58,0.08,1.3,108,1574,Incorrect
4F4K_congruent,107,205,2,97,58.52,68.36,0.07,1.07,108,1405,Incorrect
4F4K_congruent,107,206,1,107,89.5,64.81,0.1,1.02,115,917,Incorrect
4F4K_congruent,107,207,2,97,67.69,84.58,0.08,1.33,108,1027,Incorrect
4F4K_congruent,107,208,2,97,36.11,57.22,0.04,0.9,97,955,Correct
4F4K_congruent,107,209,2,97,23.43,42.27,0.03,0.66,97,1694,Correct
4F4K_congruent,107,210,1,115,54.66,63.49,0.06,1.0,107,1456,Incorrect
4F4K_congruent,107,211,2,97,55.18,73.67,0.06,1.16,108,681,Incorrect
4F4K_congruent,107,212,2,97,34.94,65.86,0.04,1.03,97,751,Correct
4F4K_congruent,107,213,1,115,45.8,60.0,0.05,0.94,115,1143,Correct
4F4K_congruent,107,214,1,115,50.6,63.34,0.06,0.99,107,1005,Incorrect
4F4K_congruent,107,215,1,107,77.72,61.54,0.09,0.97,107,792,Correct
4F4K_congruent,107,216,2,97,42.34,51.46,0.05,0.81,97,676,Correct
4F4K_congruent,107,217,2,97,38.85,57.51,0.04,0.9,97,839,Correct
4F4K_congruent,107,218,1,107,39.54,28.9,0.04,0.45,115,784,Incorrect
4F4K_congruent,107,219,1,115,33.79,50.39,0.04,0.79,115,753,Correct
4F4K_congruent,107,220,1,115,30.13,45.57,0.03,0.72,115,1196,Correct
4F4K_congruent,107,221,1,107,72.38,42.07,0.08,0.66,107,714,Correct
4F4K_congruent,107,222,2,97,48.88,64.53,0.05,1.01,97,1433,Correct
4F4K_congruent,107,223,1,115,38.08,70.17,0.04,1.1,115,1053,Correct
4F4K_congruent,107,224,2,108,82.65,60.35,0.09,0.95,108,784,Correct
4F4K_congruent,107,225,1,115,43.48,66.98,0.05,1.05,115,916,Correct
4F4K_congruent,107,226,1,107,41.84,23.48,0.05,0.37,107,1678,Correct
4F4K_congruent,107,227,1,107,38.69,17.69,0.04,0.28,107,1780,Correct
4F4K_congruent,107,228,1,107,73.67,58.69,0.08,0.92,115,819,Incorrect
4F4K_congruent,107,229,1,115,50.47,70.66,0.06,1.11,115,2009,Correct
4F4K_congruent,107,230,2,97,61.62,75.59,0.07,1.19,97,2339,Correct
4F4K_congruent,107,231,2,97,41.22,48.91,0.05,0.77,97,840,Correct
4F4K_congruent,107,232,2,108,78.21,53.86,0.09,0.85,108,1399,Correct
4F4K_congruent,107,233,2,97,40.51,60.89,0.05,0.96,97,1023,Correct
4F4K_congruent,107,234,1,107,59.84,52.19,0.07,0.82,107,1407,Correct
4F4K_congruent,107,235,1,107,41.73,15.6,0.05,0.24,115,1156,Incorrect
4F4K_congruent,107,236,2,97,29.54,56.76,0.03,0.89,97,1970,Correct
4F4K_congruent,107,237,2,97,36.9,59.88,0.04,0.94,97,1257,Correct
4F4K_congruent,107,238,2,97,42.29,69.85,0.05,1.1,97,1040,Correct
4F4K_congruent,107,239,1,115,63.18,76.53,0.07,1.2,107,1374,Incorrect
4F4K_congruent,107,240,2,97,29.57,50.4,0.03,0.79,97,1104,Correct
4F4K_congruent,107,241,2,97,20.28,45.13,0.02,0.71,97,911,Correct
4F4K_congruent,107,242,1,107,78.16,56.73,0.09,0.89,107,1026,Correct
4F4K_congruent,107,243,2,97,51.25,69.95,0.06,1.1,97,1075,Correct
4F4K_congruent,107,244,2,97,55.73,76.01,0.06,1.19,97,1020,Correct
4F4K_congruent,107,245,1,115,12.42,32.17,0.01,0.51,115,797,Correct
4F4K_congruent,107,246,2,97,28.59,54.35,0.03,0.85,97,843,Correct
4F4K_congruent,107,247,1,115,19.0,37.74,0.02,0.59,115,1043,Correct
4F4K_congruent,107,248,2,97,68.76,84.96,0.08,1.33,97,1799,Correct
4F4K_congruent,107,249,2,108,41.78,31.04,0.05,0.49,108,1018,Correct
4F4K_congruent,107,250,2,97,39.99,50.99,0.04,0.8,97,939,Correct
4F4K_congruent,107,251,1,107,63.46,45.58,0.07,0.72,107,921,Correct
4F4K_congruent,107,252,2,108,55.08,26.31,0.06,0.41,108,728,Correct
4F4K_congruent,107,253,2,108,45.75,34.96,0.05,0.55,108,731,Correct
4F4K_congruent,107,254,2,97,20.96,41.84,0.02,0.66,97,1570,Correct
4F4K_congruent,107,255,2,108,87.69,61.42,0.1,0.96,97,1063,Incorrect
4F4K_congruent,107,256,2,108,51.98,27.44,0.06,0.43,108,795,Correct
4F4K_congruent,107,257,1,107,55.06,36.77,0.06,0.58,107,1038,Correct
4F4K_congruent,107,258,1,115,24.65,39.23,0.03,0.62,115,683,Correct
4F4K_congruent,107,259,1,115,20.53,46.51,0.02,0.73,115,1061,Correct
4F4K_congruent,107,260,1,107,84.59,61.0,0.09,0.96,107,924,Correct
4F4K_congruent,107,261,1,115,30.5,60.97,0.03,0.96,115,660,Correct
4F4K_congruent,107,262,2,97,23.48,42.09,0.03,0.66,97,938,Correct
4F4K_congruent,107,263,1,107,49.64,32.49,0.06,0.51,107,642,Correct
4F4K_congruent,107,264,2,108,51.56,42.5,0.06,0.67,97,2407,Incorrect
4F4K_congruent,107,265,2,97,57.43,65.9,0.06,1.04,108,761,Incorrect
4F4K_congruent,107,266,2,108,84.16,63.57,0.09,1.0,108,719,Correct
4F4K_congruent,107,267,2,108,57.96,39.74,0.06,0.62,108,668,Correct
4F4K_congruent,107,268,1,107,57.08,25.89,0.06,0.41,107,680,Correct
4F4K_congruent,107,269,1,115,62.06,75.67,0.07,1.19,115,967,Correct
4F4K_congruent,107,270,2,97,61.6,72.56,0.07,1.14,97,1355,Correct
4F4K_congruent,107,271,1,115,42.36,63.01,0.05,0.99,115,794,Correct
4F4K_congruent,107,272,1,115,38.74,63.5,0.04,1.0,115,729,Correct
4F4K_congruent,107,273,2,97,28.74,56.14,0.03,0.88,97,704,Correct
4F4K_congruent,107,274,1,115,32.95,49.57,0.04,0.78,115,633,Correct
4F4K_congruent,107,275,2,108,52.76,37.17,0.06,0.58,108,1063,Correct
4F4K_congruent,107,276,2,97,14.28,31.37,0.02,0.49,97,1172,Correct
4F4K_congruent,107,277,1,115,59.56,76.23,0.07,1.2,115,1196,Correct
4F4K_congruent,107,278,2,97,25.75,39.31,0.03,0.62,97,663,Correct
4F4K_congruent,107,279,2,108,73.27,61.51,0.08,0.97,108,1269,Correct
4F4K_congruent,107,280,1,115,46.42,56.85,0.05,0.89,115,960,Correct
4F4K_congruent,107,281,2,108,59.13,28.06,0.07,0.44,108,973,Correct
4F4K_congruent,107,282,1,107,64.09,51.45,0.07,0.81,107,1019,Correct
4F4K_congruent,107,283,2,108,53.93,30.83,0.06,0.48,108,963,Correct
4F4K_congruent,107,284,1,115,15.44,44.07,0.02,0.69,115,637,Correct
4F4K_congruent,107,285,1,107,62.18,42.77,0.07,0.67,107,729,Correct
4F4K_congruent,107,286,2,97,52.95,69.96,0.06,1.1,97,2192,Correct
4F4K_congruent,107,287,1,115,17.57,33.16,0.02,0.52,115,712,Correct
4F4K_congruent,107,288,1,107,43.89,25.28,0.05,0.4,107,929,Correct
4F4K_congruent,107,289,2,97,44.51,67.58,0.05,1.06,97,1034,Correct
4F4K_congruent,107,290,1,115,49.89,68.21,0.06,1.07,115,991,Correct
4F4K_congruent,107,291,1,107,47.23,33.56,0.05,0.53,107,658,Correct
4F4K_congruent,107,292,1,107,51.55,36.31,0.06,0.57,107,727,Correct
4F4K_congruent,107,293,1,115,52.9,69.69,0.06,1.09,115,653,Correct
4F4K_congruent,107,294,2,108,59.26,40.9,0.07,0.64,108,684,Correct
4F4K_congruent,107,295,2,108,58.18,26.14,0.07,0.41,108,726,Correct
4F4K_congruent,107,296,2,97,40.36,70.14,0.05,1.1,97,708,Correct
4F4K_congruent,107,297,1,107,68.89,46.77,0.08,0.73,107,995,Correct
4F4K_congruent,107,298,2,108,64.78,47.74,0.07,0.75,108,1151,Correct
4F4K_congruent,107,299,1,107,60.91,36.96,0.07,0.58,115,739,Incorrect
4F4K_congruent,107,300,2,108,64.05,46.99,0.07,0.74,108,859,Correct
4F4K_congruent,107,301,2,108,80.04,60.08,0.09,0.94,108,726,Correct
4F4K_congruent,107,302,1,115,32.84,47.48,0.04,0.75,115,629,Correct
4F4K_congruent,107,303,2,108,58.53,43.91,0.07,0.69,108,730,Correct
4F4K_congruent,107,304,2,108,41.82,33.82,0.05,0.53,97,717,Incorrect
4F4K_congruent,107,305,1,107,41.4,18.18,0.05,0.29,115,669,Incorrect
4F4K_congruent,107,306,2,108,82.31,58.68,0.09,0.92,108,718,Correct
4F4K_congruent,107,307,2,108,62.98,41.42,0.07,0.65,108,1165,Correct
4F4K_congruent,107,308,2,97,54.38,81.01,0.06,1.27,108,612,Incorrect
4F4K_congruent,107,309,2,108,37.23,22.12,0.04,0.35,97,767,Incorrect
4F4K_congruent,107,310,2,97,38.63,65.55,0.04,1.03,97,1134,Correct
4F4K_congruent,107,311,1,115,36.96,58.06,0.04,0.91,115,1444,Correct
4F4K_congruent,107,312,2,108,70.2,60.03,0.08,0.94,108,766,Correct
4F4K_congruent,107,313,1,107,44.25,19.89,0.05,0.31,107,845,Correct
4F4K_congruent,107,314,2,108,31.84,12.27,0.04,0.19,108,1617,Correct
4F4K_congruent,107,315,2,97,50.2,76.48,0.06,1.2,97,903,Correct
4F4K_congruent,107,316,1,107,67.09,55.74,0.08,0.88,107,1181,Correct
4F4K_congruent,107,317,2,108,43.44,14.69,0.05,0.23,108,1072,Correct
4F4K_congruent,107,318,1,107,57.15,25.02,0.06,0.39,107,932,Correct
4F4K_congruent,107,319,1,107,71.49,60.86,0.08,0.96,107,4345,Correct
4F4K_congruent,107,320,1,107,39.06,17.23,0.04,0.27,107,1027,Correct
4F4K_congruent,107,321,1,115,10.63,33.93,0.01,0.53,107,936,Incorrect
4F4K_congruent,107,322,2,97,18.84,34.88,0.02,0.55,97,837,Correct
4F4K_congruent,107,323,1,107,78.54,56.18,0.09,0.88,107,575,Correct
4F4K_congruent,107,324,2,97,11.86,30.55,0.01,0.48,97,1263,Correct
4F4K_congruent,107,325,1,107,48.6,20.05,0.05,0.31,107,1666,Correct
4F4K_congruent,107,326,2,108,48.4,39.76,0.05,0.62,108,650,Correct
4F4K_congruent,107,327,2,108,53.44,24.35,0.06,0.38,108,607,Correct
4F4K_congruent,107,328,2,97,50.04,79.76,0.06,1.25,97,769,Correct
4F4K_congruent,107,329,2,97,24.23,41.5,0.03,0.65,108,2571,Incorrect
4F4K_congruent,107,330,2,97,22.67,35.13,0.03,0.55,108,1147,Incorrect
4F4K_congruent,107,331,1,115,65.63,81.36,0.07,1.28,115,1006,Correct
4F4K_congruent,107,332,2,108,54.13,26.58,0.06,0.42,108,746,Correct
4F4K_congruent,107,333,1,115,61.02,78.86,0.07,1.24,115,990,Correct
4F4K_congruent,107,334,1,115,26.69,46.62,0.03,0.73,115,972,Correct
4F4K_congruent,107,335,1,107,68.26,49.0,0.08,0.77,107,3266,Correct
4F4K_congruent,107,336,2,108,87.02,68.35,0.1,1.07,108,2143,Correct
4F4K_congruent,107,337,1,107,58.13,29.09,0.07,0.46,107,1010,Correct
4F4K_congruent,107,338,1,115,27.01,36.85,0.03,0.58,115,808,Correct
4F4K_congruent,107,339,1,107,42.29,26.56,0.05,0.42,115,908,Incorrect
4F4K_congruent,107,340,2,108,63.79,45.69,0.07,0.72,108,696,Correct
4F4K_congruent,107,341,1,115,36.67,67.45,0.04,1.06,115,654,Correct
4F4K_congruent,107,342,2,108,76.75,53.61,0.09,0.84,108,1274,Correct
4F4K_congruent,107,343,1,115,16.29,46.6,0.02,0.73,115,960,Correct
4F4K_congruent,107,344,1,107,84.26,66.45,0.09,1.04,107,1634,Correct
4F4K_congruent,107,345,2,108,77.73,59.45,0.09,0.93,108,751,Correct
4F4K_congruent,107,346,2,97,62.06,75.71,0.07,1.19,108,1239,Incorrect
4F4K_congruent,107,347,1,115,11.3,37.46,0.01,0.59,115,748,Correct
4F4K_congruent,107,348,1,115,44.13,53.88,0.05,0.85,107,692,Incorrect
4F4K_congruent,107,349,1,115,40.88,72.43,0.05,1.14,115,1054,Correct
4F4K_congruent,107,350,1,107,38.31,17.81,0.04,0.28,107,1273,Correct
4F4K_congruent,107,351,2,97,32.89,55.39,0.04,0.87,97,1831,Correct
4F4K_congruent,107,352,2,97,42.99,72.55,0.05,1.14,97,734,Correct
4F4K_congruent,107,353,1,107,74.79,43.35,0.08,0.68,107,986,Correct
4F4K_congruent,107,354,2,97,30.99,46.78,0.03,0.73,97,1465,Correct
4F4K_congruent,107,355,1,115,51.23,74.34,0.06,1.17,107,1335,Incorrect
4F4K_congruent,107,356,1,115,46.84,69.75,0.05,1.1,115,814,Correct
4F4K_congruent,107,357,1,107,51.87,22.57,0.06,0.35,107,909,Correct
4F4K_congruent,107,358,2,108,45.53,37.83,0.05,0.59,108,973,Correct
4F4K_congruent,107,359,1,115,43.58,60.3,0.05,0.95,115,1154,Correct
4F4K_congruent,107,360,2,108,73.35,42.46,0.08,0.67,108,818,Correct
4F4K_congruent,107,361,1,115,48.14,65.15,0.05,1.02,115,931,Correct
4F4K_congruent,107,362,2,108,61.63,49.58,0.07,0.78,108,1090,Correct
4F4K_congruent,107,363,2,108,44.86,26.79,0.05,0.42,108,1177,Correct
4F4K_congruent,107,364,1,115,32.32,62.27,0.04,0.98,115,1183,Correct
4F4K_congruent,107,365,1,115,25.55,48.56,0.03,0.76,115,749,Correct
4F4K_congruent,107,366,1,115,45.61,55.41,0.05,0.87,115,2498,Correct
4F4K_congruent,107,367,1,115,22.22,45.94,0.02,0.72,115,697,Correct
4F4K_congruent,107,368,2,108,65.12,40.3,0.07,0.63,108,709,Correct
4F4K_congruent,107,369,1,107,48.5,29.23,0.05,0.46,107,954,Correct
4F4K_congruent,107,370,1,107,58.4,29.96,0.07,0.47,107,2191,Correct
4F4K_congruent,107,371,2,108,38.02,25.72,0.04,0.4,108,873,Correct
4F4K_congruent,107,372,1,107,42.16,26.96,0.05,0.42,107,865,Correct
4F4K_congruent,107,373,2,108,48.98,29.43,0.05,0.46,108,733,Correct
4F4K_congruent,107,374,1,115,11.96,35.41,0.01,0.56,115,681,Correct
4F4K_congruent,107,375,1,107,83.99,59.68,0.09,0.94,107,3767,Correct
4F4K_congruent,107,376,2,97,56.74,85.41,0.06,1.34,97,1586,Correct
4F4K_congruent,107,377,2,97,22.26,51.0,0.02,0.8,97,692,Correct
4F4K_congruent,107,378,1,115,52.45,79.27,0.06,1.25,115,966,Correct
4F4K_congruent,107,379,1,115,31.04,54.8,0.03,0.86,115,1993,Correct
4F4K_congruent,107,380,2,97,33.5,42.57,0.04,0.67,108,1344,Incorrect
4F4K_congruent,107,381,1,107,69.72,48.19,0.08,0.76,107,1159,Correct
4F4K_congruent,107,382,1,115,56.8,66.17,0.06,1.04,107,982,Incorrect
4F4K_congruent,107,383,1,107,64.55,48.2,0.07,0.76,107,636,Correct
4F4K_congruent,107,384,1,115,37.08,61.29,0.04,0.96,115,729,Correct
4F4K_congruent,107,385,1,107,38.55,25.92,0.04,0.41,107,1338,Correct
4F4K_congruent,107,386,2,108,61.83,43.03,0.07,0.68,108,683,Correct
4F4K_congruent,107,387,1,107,45.67,16.21,0.05,0.25,107,615,Correct
4F4K_congruent,107,388,2,108,63.66,48.74,0.07,0.77,108,578,Correct
4F4K_congruent,107,389,1,115,50.97,62.34,0.06,0.98,115,1753,Correct
4F4K_congruent,107,390,1,107,64.36,56.62,0.07,0.89,107,1326,Correct
4F4K_congruent,107,391,2,108,65.96,45.1,0.07,0.71,108,920,Correct
4F4K_congruent,107,392,1,107,74.06,51.61,0.08,0.81,107,658,Correct
4F4K_congruent,107,393,2,97,10.51,34.66,0.01,0.54,97,734,Correct
4F4K_congruent,107,394,2,108,76.27,61.82,0.09,0.97,108,909,Correct
4F4K_congruent,107,395,2,97,61.2,80.04,0.07,1.26,97,729,Correct
4F4K_congruent,107,396,2,108,58.71,26.09,0.07,0.41,108,691,Correct
4F4K_congruent,107,397,2,108,74.81,49.19,0.08,0.77,108,1335,Correct
4F4K_congruent,107,398,2,97,35.93,56.03,0.04,0.88,97,727,Correct
