condition,subject,trial,sub_task,cat,x,y,xt,yt,resp,rt,fb
4F4K_incongruent,164,0,1,115,62.01,73.98,0.07,1.16,115,5281,Correct
4F4K_incongruent,164,1,2,97,65.6,39.27,0.07,0.62,97,3848,Correct
4F4K_incongruent,164,2,2,108,56.43,83.97,0.06,1.32,108,1864,Correct
4F4K_incongruent,164,3,1,115,53.72,68.81,0.06,1.08,107,5945,Incorrect
4F4K_incongruent,164,4,2,108,45.96,67.4,0.05,1.06,97,2792,Incorrect
4F4K_incongruent,164,5,1,107,56.98,43.08,0.06,0.68,107,880,Correct
4F4K_incongruent,164,6,1,115,35.17,67.9,0.04,1.07,115,2164,Correct
4F4K_incongruent,164,7,2,108,51.83,64.59,0.06,1.01,97,1373,Incorrect
4F4K_incongruent,164,8,2,97,32.05,14.13,0.04,0.22,108,1180,Incorrect
4F4K_incongruent,164,9,1,115,26.43,55.31,0.03,0.87,107,1878,Incorrect
4F4K_incongruent,164,10,1,115,12.99,37.66,0.01,0.59,115,1078,Correct
4F4K_incongruent,164,11,1,115,11.74,31.96,0.01,0.5,115,1167,Correct
4F4K_incongruent,164,12,1,115,46.09,71.84,0.05,1.13,107,1142,Incorrect
4F4K_incongruent,164,13,1,115,26.33,42.34,0.03,0.67,107,2153,Incorrect
4F4K_incongruent,164,14,1,115,58.56,72.1,0.07,1.13,107,1849,Incorrect
4F4K_incongruent,164,15,2,108,17.11,44.72,0.02,0.7,108,1911,Correct
4F4K_incongruent,164,16,1,107,84.25,56.52,0.09,0.89,115,2411,Incorrect
4F4K_incongruent,164,17,1,115,49.98,81.21,0.06,1.28,107,787,Incorrect
4F4K_incongruent,164,18,2,108,30.22,55.11,0.03,0.87,97,1012,Incorrect
4F4K_incongruent,164,19,2,97,69.5,39.75,0.08,0.62,97,1601,Correct
4F4K_incongruent,164,20,1,115,17.71,43.77,0.02,0.69,107,746,Incorrect
4F4K_incongruent,164,21,2,108,60.86,75.18,0.07,1.18,97,2906,Incorrect
4F4K_incongruent,164,22,1,115,44.23,72.09,0.05,1.13,115,2073,Correct
4F4K_incongruent,164,23,2,97,57.78,34.28,0.06,0.54,108,1199,Incorrect
4F4K_incongruent,164,24,1,115,22.83,52.29,0.03,0.82,107,1538,Incorrect
4F4K_incongruent,164,25,2,97,74.09,52.9,0.08,0.83,97,1564,Correct
4F4K_incongruent,164,26,2,97,34.82,17.47,0.04,0.27,108,2924,Incorrect
4F4K_incongruent,164,27,2,108,46.27,78.2,0.05,1.23,108,2818,Correct
4F4K_incongruent,164,28,1,107,39.82,23.22,0.04,0.36,115,2010,Incorrect
4F4K_incongruent,164,29,2,108,29.49,50.35,0.03,0.79,108,688,Correct
4F4K_incongruent,164,30,1,107,61.06,45.77,0.07,0.72,115,3103,Incorrect
4F4K_incongruent,164,31,1,115,18.97,47.07,0.02,0.74,115,2864,Correct
4F4K_incongruent,164,32,2,97,62.94,34.19,0.07,0.54,108,2561,Incorrect
4F4K_incongruent,164,33,1,107,54.32,43.25,0.06,0.68,115,962,Incorrect
4F4K_incongruent,164,34,2,97,56.71,38.46,0.06,0.6,97,1193,Correct
4F4K_incongruent,164,35,2,108,46.88,62.1,0.05,0.98,108,1423,Correct
4F4K_incongruent,164,36,2,108,28.16,51.88,0.03,0.81,97,2035,Incorrect
4F4K_incongruent,164,37,2,108,46.69,62.56,0.05,0.98,108,3083,Correct
4F4K_incongruent,164,38,1,115,55.93,77.1,0.06,1.21,115,6120,Incorrect
4F4K_incongruent,164,39,1,107,54.68,40.59,0.06,0.64,107,1947,Correct
4F4K_incongruent,164,40,2,97,73.12,44.78,0.08,0.7,97,2740,Correct
4F4K_incongruent,164,41,2,108,23.02,55.49,0.03,0.87,108,3798,Correct
4F4K_incongruent,164,42,2,108,27.53,48.62,0.03,0.76,108,1572,Correct
4F4K_incongruent,164,43,2,97,64.8,44.77,0.07,0.7,97,2123,Correct
4F4K_incongruent,164,44,1,107,36.84,15.61,0.04,0.25,107,7609,Correct
4F4K_incongruent,164,45,1,115,65.09,82.23,0.07,1.29,115,1484,Correct
4F4K_incongruent,164,46,1,107,79.24,52.1,0.09,0.82,115,834,Incorrect
4F4K_incongruent,164,47,2,97,78.19,54.73,0.09,0.86,97,1417,Correct
4F4K_incongruent,164,48,2,108,62.46,71.96,0.07,1.13,97,1856,Incorrect
4F4K_incongruent,164,49,1,115,58.57,72.63,0.07,1.14,115,4686,Correct
4F4K_incongruent,164,50,1,107,67.34,43.44,0.08,0.68,115,2592,Incorrect
4F4K_incongruent,164,51,2,97,76.43,45.45,0.09,0.71,97,3953,Correct
4F4K_incongruent,164,52,2,108,39.27,66.78,0.04,1.05,108,1137,Correct
4F4K_incongruent,164,53,1,107,69.22,58.64,0.08,0.92,115,1925,Incorrect
4F4K_incongruent,164,54,2,97,69.44,57.74,0.08,0.91,108,814,Incorrect
4F4K_incongruent,164,55,1,107,42.22,24.41,0.05,0.38,107,1439,Correct
4F4K_incongruent,164,56,2,97,35.49,23.44,0.04,0.37,108,1728,Incorrect
4F4K_incongruent,164,57,2,108,33.42,57.15,0.04,0.9,108,1084,Correct
4F4K_incongruent,164,58,2,97,55.96,34.61,0.06,0.54,97,1403,Correct
4F4K_incongruent,164,59,2,97,42.35,31.48,0.05,0.49,108,2050,Incorrect
4F4K_incongruent,164,60,1,107,59.98,28.23,0.07,0.44,107,1880,Incorrect
4F4K_incongruent,164,61,1,107,48.94,19.82,0.05,0.31,107,580,Correct
4F4K_incongruent,164,62,1,107,83.58,57.47,0.09,0.9,107,2781,Correct
4F4K_incongruent,164,63,2,97,41.87,26.88,0.05,0.42,108,1503,Incorrect
4F4K_incongruent,164,64,2,108,49.1,72.33,0.05,1.14,97,2679,Incorrect
4F4K_incongruent,164,65,2,97,68.34,58.97,0.08,0.93,108,929,Incorrect
4F4K_incongruent,164,66,2,97,61.41,30.48,0.07,0.48,97,1271,Correct
4F4K_incongruent,164,67,2,108,64.35,82.72,0.07,1.3,108,1236,Correct
4F4K_incongruent,164,68,1,115,30.7,61.63,0.03,0.97,107,2294,Incorrect
4F4K_incongruent,164,69,1,115,59.05,76.22,0.07,1.2,107,14024,Incorrect
4F4K_incongruent,164,70,2,108,47.18,70.06,0.05,1.1,97,1849,Incorrect
4F4K_incongruent,164,71,1,107,50.39,41.7,0.06,0.66,107,726,Correct
4F4K_incongruent,164,72,1,107,48.94,29.2,0.05,0.46,115,1124,Incorrect
4F4K_incongruent,164,73,1,115,34.67,45.1,0.04,0.71,107,2371,Incorrect
4F4K_incongruent,164,74,2,108,43.74,75.56,0.05,1.19,97,2353,Incorrect
4F4K_incongruent,164,75,1,107,73.85,54.09,0.08,0.85,115,1201,Incorrect
4F4K_incongruent,164,76,1,107,78.92,47.93,0.09,0.75,107,743,Correct
4F4K_incongruent,164,77,1,115,22.36,47.92,0.03,0.75,107,1215,Incorrect
4F4K_incongruent,164,78,2,97,68.34,56.46,0.08,0.89,97,2620,Correct
4F4K_incongruent,164,79,2,97,47.89,32.9,0.05,0.52,108,954,Incorrect
4F4K_incongruent,164,80,2,108,49.43,60.66,0.06,0.95,97,700,Incorrect
4F4K_incongruent,164,81,2,97,32.05,17.12,0.04,0.27,108,693,Incorrect
4F4K_incongruent,164,82,2,108,51.78,73.22,0.06,1.15,97,616,Incorrect
4F4K_incongruent,164,83,1,107,85.35,63.77,0.1,1.0,107,2894,Correct
4F4K_incongruent,164,84,1,115,31.71,62.76,0.04,0.99,115,1668,Correct
4F4K_incongruent,164,85,1,107,36.23,18.25,0.04,0.29,115,1290,Incorrect
4F4K_incongruent,164,86,1,107,55.33,24.83,0.06,0.39,115,1568,Incorrect
4F4K_incongruent,164,87,2,97,50.9,41.97,0.06,0.66,108,3419,Incorrect
4F4K_incongruent,164,88,1,115,57.49,81.03,0.06,1.27,115,716,Correct
4F4K_incongruent,164,89,2,97,47.99,25.24,0.05,0.4,108,684,Incorrect
4F4K_incongruent,164,90,2,97,44.13,15.58,0.05,0.24,108,1060,Incorrect
4F4K_incongruent,164,91,2,97,73.58,55.74,0.08,0.88,97,1109,Correct
4F4K_incongruent,164,92,1,115,25.02,46.9,0.03,0.74,115,2660,Correct
4F4K_incongruent,164,93,2,97,67.51,50.32,0.08,0.79,97,1795,Correct
4F4K_incongruent,164,94,2,108,26.87,54.29,0.03,0.85,97,3262,Incorrect
4F4K_incongruent,164,95,1,115,39.68,58.79,0.04,0.92,108,5033,Incorrect
4F4K_incongruent,164,96,2,97,63.63,49.74,0.07,0.78,108,1408,Incorrect
4F4K_incongruent,164,97,2,97,56.6,44.96,0.06,0.71,97,2708,Correct
4F4K_incongruent,164,98,1,115,37.3,56.15,0.04,0.88,107,2185,Incorrect
4F4K_incongruent,164,99,2,97,40.83,18.15,0.05,0.29,108,2145,Incorrect
4F4K_incongruent,164,100,1,115,50.75,76.46,0.06,1.2,115,1968,Correct
4F4K_incongruent,164,101,2,108,56.92,85.46,0.06,1.34,97,1469,Incorrect
4F4K_incongruent,164,102,1,107,71.29,54.25,0.08,0.85,115,809,Incorrect
4F4K_incongruent,164,103,2,108,42.12,69.25,0.05,1.09,108,1741,Correct
4F4K_incongruent,164,104,2,97,59.99,49.66,0.07,0.78,97,828,Correct
4F4K_incongruent,164,105,1,107,47.07,25.32,0.05,0.4,107,1627,Correct
4F4K_incongruent,164,106,2,108,31.13,43.02,0.03,0.68,108,2279,Correct
4F4K_incongruent,164,107,2,97,66.79,56.29,0.07,0.88,97,479,Correct
4F4K_incongruent,164,108,1,107,78.98,60.27,0.09,0.95,107,2643,Correct
4F4K_incongruent,164,109,2,97,59.51,38.65,0.07,0.61,97,3540,Correct
4F4K_incongruent,164,110,1,107,56.85,28.77,0.06,0.45,115,2379,Incorrect
4F4K_incongruent,164,111,1,115,35.62,60.48,0.04,0.95,115,2872,Correct
4F4K_incongruent,164,112,1,115,29.98,39.99,0.03,0.63,115,1815,Correct
4F4K_incongruent,164,113,2,97,44.49,26.59,0.05,0.42,108,3028,Incorrect
4F4K_incongruent,164,114,2,97,80.95,61.61,0.09,0.97,97,3433,Correct
4F4K_incongruent,164,115,1,115,68.25,87.62,0.08,1.38,107,2204,Incorrect
4F4K_incongruent,164,116,1,107,52.17,30.96,0.06,0.49,115,3325,Incorrect
4F4K_incongruent,164,117,2,97,32.76,17.71,0.04,0.28,108,2869,Incorrect
4F4K_incongruent,164,118,1,115,33.44,47.7,0.04,0.75,115,3622,Correct
4F4K_incongruent,164,119,2,97,80.45,58.8,0.09,0.92,108,1813,Incorrect
4F4K_incongruent,164,120,2,108,66.51,84.04,0.07,1.32,97,900,Incorrect
4F4K_incongruent,164,121,1,115,20.64,35.09,0.02,0.55,115,3232,Correct
4F4K_incongruent,164,122,1,115,51.43,74.59,0.06,1.17,107,2683,Incorrect
4F4K_incongruent,164,123,1,107,42.43,26.43,0.05,0.42,115,3436,Incorrect
4F4K_incongruent,164,124,1,115,44.17,67.18,0.05,1.06,115,1623,Correct
4F4K_incongruent,164,125,2,108,40.88,51.9,0.05,0.82,108,6136,Correct
4F4K_incongruent,164,126,1,107,67.55,55.96,0.08,0.88,107,5196,Correct
4F4K_incongruent,164,127,1,115,64.26,80.85,0.07,1.27,107,997,Incorrect
4F4K_incongruent,164,128,1,107,50.91,37.04,0.06,0.58,115,1261,Incorrect
4F4K_incongruent,164,129,2,97,36.85,16.05,0.04,0.25,108,3227,Incorrect
4F4K_incongruent,164,130,1,107,70.67,39.64,0.08,0.62,107,4412,Correct
4F4K_incongruent,164,131,2,108,64.54,81.88,0.07,1.29,108,2776,Correct
4F4K_incongruent,164,132,2,108,54.16,77.48,0.06,1.22,108,2653,Correct
4F4K_incongruent,164,133,1,115,36.64,60.16,0.04,0.94,115,2579,Correct
4F4K_incongruent,164,134,2,108,27.29,55.03,0.03,0.86,108,5073,Correct
4F4K_incongruent,164,135,2,97,62.22,28.98,0.07,0.46,97,4048,Correct
4F4K_incongruent,164,136,1,115,58.19,66.13,0.07,1.04,107,1638,Incorrect
4F4K_incongruent,164,137,2,108,60.21,87.01,0.07,1.37,97,3686,Incorrect
4F4K_incongruent,164,138,1,115,60.52,70.4,0.07,1.11,107,959,Incorrect
4F4K_incongruent,164,139,1,107,54.3,36.41,0.06,0.57,107,1401,Correct
4F4K_incongruent,164,140,1,115,67.84,80.49,0.08,1.26,107,1024,Incorrect
4F4K_incongruent,164,141,1,107,39.0,18.72,0.04,0.29,115,1356,Incorrect
4F4K_incongruent,164,142,2,97,48.5,29.83,0.05,0.47,97,4820,Correct
4F4K_incongruent,164,143,1,107,53.85,46.82,0.06,0.74,115,6019,Incorrect
4F4K_incongruent,164,144,2,108,42.44,59.54,0.05,0.94,97,1952,Incorrect
4F4K_incongruent,164,145,1,115,43.59,75.46,0.05,1.19,115,10533,Correct
4F4K_incongruent,164,146,2,108,32.73,56.38,0.04,0.89,108,3967,Correct
4F4K_incongruent,164,147,2,108,41.23,70.04,0.05,1.1,108,3058,Correct
4F4K_incongruent,164,148,1,115,20.76,35.45,0.02,0.56,115,2087,Correct
4F4K_incongruent,164,149,2,108,33.71,41.88,0.04,0.66,108,3081,Correct
4F4K_incongruent,164,150,1,115,66.52,84.44,0.07,1.33,107,2197,Incorrect
4F4K_incongruent,164,151,2,97,65.79,57.73,0.07,0.91,97,8397,Correct
4F4K_incongruent,164,152,1,107,65.05,49.93,0.07,0.78,107,2655,Correct
4F4K_incongruent,164,153,1,115,22.67,33.76,0.03,0.53,115,7048,Correct
4F4K_incongruent,164,154,1,115,41.62,48.63,0.05,0.76,115,4212,Correct
4F4K_incongruent,164,155,2,108,33.65,65.06,0.04,1.02,108,5920,Correct
4F4K_incongruent,164,156,1,115,26.06,48.54,0.03,0.76,115,7473,Correct
4F4K_incongruent,164,157,2,108,36.05,53.77,0.04,0.84,108,8668,Correct
4F4K_incongruent,164,158,1,115,28.58,59.87,0.03,0.94,115,4666,Correct
4F4K_incongruent,164,159,2,97,72.41,57.41,0.08,0.9,97,3220,Correct
4F4K_incongruent,164,160,2,97,52.34,37.24,0.06,0.58,97,2193,Correct
4F4K_incongruent,164,161,1,107,66.25,38.32,0.07,0.6,107,3427,Correct
4F4K_incongruent,164,162,2,108,67.86,80.62,0.08,1.27,97,4301,Incorrect
4F4K_incongruent,164,163,2,97,67.01,55.41,0.07,0.87,97,814,Correct
4F4K_incongruent,164,164,1,107,64.42,53.97,0.07,0.85,115,9100,Incorrect
4F4K_incongruent,164,165,2,97,77.17,59.41,0.09,0.93,97,6829,Correct
4F4K_incongruent,164,166,1,115,62.59,85.71,0.07,1.35,107,2496,Incorrect
4F4K_incongruent,164,167,2,97,62.78,45.22,0.07,0.71,97,4297,Correct
4F4K_incongruent,164,168,1,115,36.22,62.01,0.04,0.97,115,3196,Correct
4F4K_incongruent,164,169,1,115,44.34,53.57,0.05,0.84,115,1430,Correct
4F4K_incongruent,164,170,2,97,43.63,32.49,0.05,0.51,108,7481,Incorrect
4F4K_incongruent,164,171,1,107,73.48,46.1,0.08,0.72,107,2043,Correct
4F4K_incongruent,164,172,2,97,49.86,18.98,0.06,0.3,108,3363,Incorrect
4F4K_incongruent,164,173,1,115,39.69,51.76,0.04,0.81,115,1827,Correct
4F4K_incongruent,164,174,2,108,19.95,33.7,0.02,0.53,108,3025,Correct
4F4K_incongruent,164,175,1,107,52.69,36.08,0.06,0.57,107,4425,Correct
4F4K_incongruent,164,176,1,107,50.35,20.77,0.06,0.33,107,995,Correct
4F4K_incongruent,164,177,1,107,37.06,12.1,0.04,0.19,115,2054,Incorrect
4F4K_incongruent,164,178,1,115,35.66,53.23,0.04,0.84,115,1233,Correct
4F4K_incongruent,164,179,2,108,49.63,64.3,0.06,1.01,97,896,Incorrect
4F4K_incongruent,164,180,1,107,33.94,19.4,0.04,0.3,115,3215,Incorrect
4F4K_incongruent,164,181,2,97,78.25,57.62,0.09,0.91,97,3439,Correct
4F4K_incongruent,164,182,1,107,71.76,43.71,0.08,0.69,107,1429,Correct
4F4K_incongruent,164,183,2,97,48.97,37.61,0.05,0.59,108,1644,Incorrect
4F4K_incongruent,164,184,2,108,19.74,35.32,0.02,0.55,108,1545,Correct
4F4K_incongruent,164,185,1,107,68.87,48.63,0.08,0.76,107,4410,Correct
4F4K_incongruent,164,186,1,115,53.6,75.91,0.06,1.19,107,1217,Incorrect
4F4K_incongruent,164,187,2,97,52.02,27.15,0.06,0.43,97,4004,Correct
4F4K_incongruent,164,188,2,108,63.43,86.44,0.07,1.36,97,2044,Incorrect
4F4K_incongruent,164,189,1,107,67.41,55.21,0.08,0.87,107,2358,Correct
4F4K_incongruent,164,190,2,108,34.61,60.51,0.04,0.95,108,2332,Correct
4F4K_incongruent,164,191,1,107,63.8,49.83,0.07,0.78,107,1000,Correct
4F4K_incongruent,164,192,2,108,39.37,71.16,0.04,1.12,108,1356,Correct
4F4K_incongruent,164,193,1,107,64.02,42.06,0.07,0.66,107,1571,Correct
4F4K_incongruent,164,194,2,97,69.31,53.99,0.08,0.85,97,3412,Correct
4F4K_incongruent,164,195,2,97,45.18,30.64,0.05,0.48,108,1402,Incorrect
4F4K_incongruent,164,196,2,97,72.12,60.97,0.08,0.96,97,1039,Correct
4F4K_incongruent,164,197,2,108,48.81,58.89,0.05,0.92,108,1288,Correct
4F4K_incongruent,164,198,2,97,34.88,20.99,0.04,0.33,108,1380,Incorrect
4F4K_incongruent,164,199,1,115,15.86,41.18,0.02,0.65,115,1645,Correct
4F4K_incongruent,164,200,1,107,48.64,26.8,0.05,0.42,107,1290,Correct
4F4K_incongruent,164,201,1,107,45.41,22.91,0.05,0.36,107,1515,Correct
4F4K_incongruent,164,202,2,108,33.24,63.82,0.04,1.0,108,3104,Correct
4F4K_incongruent,164,203,2,108,21.02,46.84,0.02,0.74,108,806,Correct
4F4K_incongruent,164,204,1,115,39.84,50.91,0.04,0.8,107,804,Incorrect
4F4K_incongruent,164,205,1,115,25.37,42.64,0.03,0.67,115,694,Correct
4F4K_incongruent,164,206,1,115,32.51,45.21,0.04,0.71,115,1468,Correct
4F4K_incongruent,164,207,1,115,51.18,68.26,0.06,1.07,107,1524,Incorrect
4F4K_incongruent,164,208,1,107,70.85,50.75,0.08,0.8,107,2184,Correct
4F4K_incongruent,164,209,1,107,73.59,48.01,0.08,0.75,107,714,Correct
4F4K_incongruent,164,210,2,97,65.08,52.86,0.07,0.83,97,2966,Correct
4F4K_incongruent,164,211,1,115,56.77,81.94,0.06,1.29,107,1508,Incorrect
4F4K_incongruent,164,212,2,97,36.16,11.93,0.04,0.19,108,1625,Incorrect
4F4K_incongruent,164,213,1,107,44.43,28.11,0.05,0.44,115,2457,Incorrect
4F4K_incongruent,164,214,1,107,51.88,20.56,0.06,0.32,107,762,Correct
4F4K_incongruent,164,215,2,108,32.18,54.32,0.04,0.85,108,2396,Correct
4F4K_incongruent,164,216,1,107,65.45,36.55,0.07,0.57,107,1331,Correct
4F4K_incongruent,164,217,2,108,53.77,69.85,0.06,1.1,97,2716,Incorrect
4F4K_incongruent,164,218,1,107,42.09,28.41,0.05,0.45,115,1662,Incorrect
4F4K_incongruent,164,219,1,115,57.67,80.06,0.06,1.26,107,1154,Incorrect
4F4K_incongruent,164,220,2,108,36.03,67.31,0.04,1.06,108,4479,Correct
4F4K_incongruent,164,221,2,108,30.79,52.77,0.03,0.83,108,2190,Correct
4F4K_incongruent,164,222,2,97,53.53,40.26,0.06,0.63,97,2433,Correct
4F4K_incongruent,164,223,1,115,35.41,61.9,0.04,0.97,115,934,Correct
4F4K_incongruent,164,224,2,97,37.71,27.92,0.04,0.44,108,881,Incorrect
4F4K_incongruent,164,225,2,97,53.17,24.07,0.06,0.38,97,1225,Correct
4F4K_incongruent,164,226,1,107,83.11,58.26,0.09,0.92,107,752,Correct
4F4K_incongruent,164,227,1,115,20.72,33.68,0.02,0.53,115,1361,Correct
4F4K_incongruent,164,228,2,108,38.29,49.7,0.04,0.78,108,1230,Correct
4F4K_incongruent,164,229,2,97,70.54,59.31,0.08,0.93,97,2231,Correct
4F4K_incongruent,164,230,2,108,27.75,52.16,0.03,0.82,108,1717,Correct
4F4K_incongruent,164,231,1,115,38.11,68.74,0.04,1.08,115,5350,Correct
4F4K_incongruent,164,232,1,107,76.6,47.03,0.09,0.74,107,711,Correct
4F4K_incongruent,164,233,2,108,21.35,46.84,0.02,0.74,108,1175,Correct
4F4K_incongruent,164,234,1,115,55.38,82.49,0.06,1.3,107,1551,Incorrect
4F4K_incongruent,164,235,2,97,85.47,66.53,0.1,1.05,108,901,Incorrect
4F4K_incongruent,164,236,1,107,68.88,39.69,0.08,0.62,107,994,Correct
4F4K_incongruent,164,237,2,108,51.43,59.43,0.06,0.93,108,1607,Correct
4F4K_incongruent,164,238,2,97,35.04,24.5,0.04,0.38,108,1429,Incorrect
4F4K_incongruent,164,239,2,108,49.66,76.04,0.06,1.19,108,790,Correct
4F4K_incongruent,164,240,2,97,41.99,23.23,0.05,0.36,108,733,Incorrect
4F4K_incongruent,164,241,1,107,55.62,28.27,0.06,0.44,107,2980,Correct
4F4K_incongruent,164,242,2,108,27.95,51.14,0.03,0.8,108,1182,Correct
4F4K_incongruent,164,243,1,115,58.09,76.92,0.07,1.21,107,2446,Incorrect
4F4K_incongruent,164,244,2,108,37.7,68.09,0.04,1.07,108,567,Correct
4F4K_incongruent,164,245,2,108,64.89,79.31,0.07,1.25,108,679,Correct
4F4K_incongruent,164,246,1,107,66.06,49.18,0.07,0.77,107,2072,Correct
4F4K_incongruent,164,247,1,107,42.91,34.05,0.05,0.53,115,3159,Incorrect
4F4K_incongruent,164,248,2,97,51.59,31.34,0.06,0.49,108,1190,Incorrect
4F4K_incongruent,164,249,1,107,58.4,35.73,0.07,0.56,107,1284,Correct
4F4K_incongruent,164,250,1,115,25.0,48.54,0.03,0.76,115,812,Correct
4F4K_incongruent,164,251,1,107,45.72,22.9,0.05,0.36,115,1984,Incorrect
4F4K_incongruent,164,252,1,107,88.26,61.45,0.1,0.97,107,794,Correct
4F4K_incongruent,164,253,2,97,39.52,22.36,0.04,0.35,108,2809,Incorrect
4F4K_incongruent,164,254,1,115,17.24,32.38,0.02,0.51,115,1022,Correct
4F4K_incongruent,164,255,2,97,44.91,34.25,0.05,0.54,97,1850,Correct
4F4K_incongruent,164,256,1,107,31.57,16.95,0.04,0.27,115,2740,Incorrect
4F4K_incongruent,164,257,1,115,62.34,71.97,0.07,1.13,107,1529,Incorrect
4F4K_incongruent,164,258,2,97,51.43,41.48,0.06,0.65,97,3265,Correct
4F4K_incongruent,164,259,2,97,80.63,62.02,0.09,0.97,97,1740,Correct
4F4K_incongruent,164,260,2,97,80.08,54.65,0.09,0.86,97,1220,Correct
4F4K_incongruent,164,261,2,97,79.77,57.04,0.09,0.9,97,808,Correct
4F4K_incongruent,164,262,2,108,44.26,57.78,0.05,0.91,108,973,Correct
4F4K_incongruent,164,263,1,107,77.38,51.52,0.09,0.81,107,1534,Correct
4F4K_incongruent,164,264,1,107,53.24,22.62,0.06,0.36,107,1029,Correct
4F4K_incongruent,164,265,1,115,36.07,59.68,0.04,0.94,115,1890,Correct
4F4K_incongruent,164,266,2,97,70.37,45.15,0.08,0.71,97,3886,Correct
4F4K_incongruent,164,267,1,107,62.64,42.88,0.07,0.67,107,2132,Correct
4F4K_incongruent,164,268,2,108,40.46,53.75,0.05,0.84,108,1894,Correct
4F4K_incongruent,164,269,1,107,62.14,37.42,0.07,0.59,107,3520,Correct
4F4K_incongruent,164,270,1,115,20.42,48.85,0.02,0.77,115,3515,Correct
4F4K_incongruent,164,271,1,115,53.34,76.92,0.06,1.21,107,4692,Incorrect
4F4K_incongruent,164,272,2,108,16.28,31.12,0.02,0.49,108,1054,Correct
4F4K_incongruent,164,273,2,108,51.85,82.19,0.06,1.29,97,2080,Incorrect
4F4K_incongruent,164,274,2,108,51.7,63.28,0.06,0.99,97,1199,Incorrect
4F4K_incongruent,164,275,1,107,54.59,34.14,0.06,0.54,107,1104,Correct
4F4K_incongruent,164,276,1,107,53.21,32.65,0.06,0.51,107,1510,Correct
4F4K_incongruent,164,277,1,107,68.17,54.78,0.08,0.86,107,2802,Correct
4F4K_incongruent,164,278,1,115,63.63,77.05,0.07,1.21,107,585,Incorrect
4F4K_incongruent,164,279,2,108,44.87,60.79,0.05,0.95,108,3002,Correct
4F4K_incongruent,164,280,2,97,32.62,20.1,0.04,0.32,108,4045,Incorrect
4F4K_incongruent,164,281,2,97,42.25,34.44,0.05,0.54,108,3566,Incorrect
4F4K_incongruent,164,282,2,97,88.58,64.02,0.1,1.01,97,1850,Correct
4F4K_incongruent,164,283,1,115,48.58,59.92,0.05,0.94,115,3487,Correct
4F4K_incongruent,164,284,1,107,85.7,61.62,0.1,0.97,115,661,Incorrect
4F4K_incongruent,164,285,2,108,24.98,40.0,0.03,0.63,108,3003,Correct
4F4K_incongruent,164,286,1,115,40.28,62.6,0.05,0.98,115,1163,Correct
4F4K_incongruent,164,287,2,108,47.59,67.85,0.05,1.07,97,2150,Incorrect
4F4K_incongruent,164,288,2,97,84.02,66.57,0.09,1.05,97,3073,Correct
4F4K_incongruent,164,289,2,108,38.81,60.95,0.04,0.96,108,1069,Correct
4F4K_incongruent,164,290,2,97,60.86,48.04,0.07,0.75,108,886,Incorrect
4F4K_incongruent,164,291,1,115,28.36,41.23,0.03,0.65,115,1776,Correct
4F4K_incongruent,164,292,1,107,66.02,43.4,0.07,0.68,107,1399,Correct
4F4K_incongruent,164,293,1,115,20.54,37.28,0.02,0.59,115,1601,Correct
4F4K_incongruent,164,294,1,115,32.41,45.95,0.04,0.72,115,1110,Correct
4F4K_incongruent,164,295,2,108,21.33,39.41,0.02,0.62,108,852,Correct
4F4K_incongruent,164,296,1,107,63.68,43.62,0.07,0.69,107,992,Correct
4F4K_incongruent,164,297,2,108,17.52,37.14,0.02,0.58,108,956,Correct
4F4K_incongruent,164,298,1,115,39.35,64.65,0.04,1.02,115,2848,Correct
4F4K_incongruent,164,299,2,108,27.63,42.65,0.03,0.67,108,885,Correct
4F4K_incongruent,164,300,2,97,88.32,67.19,0.1,1.06,97,1331,Correct
4F4K_incongruent,164,301,1,107,81.06,59.96,0.09,0.94,107,921,Correct
4F4K_incongruent,164,302,1,115,52.85,61.65,0.06,0.97,107,1989,Incorrect
4F4K_incongruent,164,303,1,107,78.38,51.59,0.09,0.81,107,991,Correct
4F4K_incongruent,164,304,1,115,51.58,73.46,0.06,1.15,115,3414,Correct
4F4K_incongruent,164,305,2,97,37.32,17.71,0.04,0.28,108,797,Incorrect
4F4K_incongruent,164,306,1,107,71.05,54.5,0.08,0.86,107,579,Correct
4F4K_incongruent,164,307,2,97,36.68,22.09,0.04,0.35,97,677,Correct
4F4K_incongruent,164,308,2,97,57.87,37.99,0.06,0.6,108,1072,Incorrect
4F4K_incongruent,164,309,2,97,45.88,30.31,0.05,0.48,108,991,Incorrect
4F4K_incongruent,164,310,1,115,43.86,51.14,0.05,0.8,115,2503,Correct
4F4K_incongruent,164,311,1,115,18.9,32.82,0.02,0.52,115,732,Correct
4F4K_incongruent,164,312,2,97,62.82,49.75,0.07,0.78,97,1329,Correct
4F4K_incongruent,164,313,1,107,66.23,57.59,0.07,0.9,107,1979,Correct
4F4K_incongruent,164,314,1,115,27.83,52.52,0.03,0.83,115,2532,Correct
4F4K_incongruent,164,315,1,115,65.41,84.38,0.07,1.33,107,4604,Incorrect
4F4K_incongruent,164,316,2,97,55.43,29.79,0.06,0.47,97,2443,Correct
4F4K_incongruent,164,317,2,108,63.49,88.43,0.07,1.39,108,813,Correct
4F4K_incongruent,164,318,1,115,39.17,57.3,0.04,0.9,107,564,Incorrect
4F4K_incongruent,164,319,2,97,31.62,14.54,0.04,0.23,108,2677,Incorrect
4F4K_incongruent,164,320,1,115,13.0,30.31,0.01,0.48,115,1357,Correct
4F4K_incongruent,164,321,1,115,56.87,84.41,0.06,1.33,107,1585,Incorrect
4F4K_incongruent,164,322,2,108,52.43,69.59,0.06,1.09,108,938,Correct
4F4K_incongruent,164,323,1,107,44.06,30.4,0.05,0.48,107,2206,Correct
4F4K_incongruent,164,324,1,107,73.07,55.7,0.08,0.87,107,1034,Correct
4F4K_incongruent,164,325,2,97,34.05,15.58,0.04,0.24,108,1075,Incorrect
4F4K_incongruent,164,326,1,115,37.04,63.39,0.04,1.0,115,3096,Correct
4F4K_incongruent,164,327,2,97,64.73,45.33,0.07,0.71,97,1177,Correct
4F4K_incongruent,164,328,1,115,54.19,77.14,0.06,1.21,107,1564,Incorrect
4F4K_incongruent,164,329,1,115,25.47,39.13,0.03,0.61,115,1153,Correct
4F4K_incongruent,164,330,1,107,56.01,47.86,0.06,0.75,107,905,Correct
4F4K_incongruent,164,331,2,97,33.48,11.43,0.04,0.18,108,1166,Incorrect
4F4K_incongruent,164,332,1,107,46.04,22.58,0.05,0.35,115,1125,Incorrect
4F4K_incongruent,164,333,1,115,34.15,67.13,0.04,1.05,115,1434,Correct
4F4K_incongruent,164,334,2,108,61.82,73.55,0.07,1.16,97,1418,Incorrect
4F4K_incongruent,164,335,2,97,63.18,51.28,0.07,0.81,108,1021,Incorrect
4F4K_incongruent,164,336,1,115,55.56,78.86,0.06,1.24,107,863,Incorrect
4F4K_incongruent,164,337,1,115,59.9,82.96,0.07,1.3,107,1031,Incorrect
4F4K_incongruent,164,338,1,115,28.99,43.22,0.03,0.68,115,1060,Correct
4F4K_incongruent,164,339,1,115,55.06,78.43,0.06,1.23,115,2446,Correct
4F4K_incongruent,164,340,2,97,52.53,32.32,0.06,0.51,97,1836,Correct
4F4K_incongruent,164,341,2,97,40.3,24.48,0.05,0.38,108,772,Incorrect
4F4K_incongruent,164,342,2,108,64.09,86.41,0.07,1.36,97,738,Incorrect
4F4K_incongruent,164,343,1,115,46.91,54.23,0.05,0.85,115,3234,Correct
4F4K_incongruent,164,344,2,97,76.9,46.55,0.09,0.73,97,1241,Correct
4F4K_incongruent,164,345,2,97,66.8,55.41,0.07,0.87,97,648,Incorrect
4F4K_incongruent,164,346,2,97,57.13,28.81,0.06,0.45,108,906,Correct
4F4K_incongruent,164,347,2,97,39.44,13.85,0.04,0.22,108,1170,Incorrect
4F4K_incongruent,164,348,1,115,53.61,62.68,0.06,0.98,115,3428,Correct
4F4K_incongruent,164,349,2,108,31.44,39.96,0.04,0.63,108,2383,Correct
4F4K_incongruent,164,350,2,97,55.9,38.7,0.06,0.61,108,1166,Incorrect
4F4K_incongruent,164,351,1,115,28.86,54.61,0.03,0.86,115,2435,Correct
4F4K_incongruent,164,352,2,97,68.83,38.56,0.08,0.61,108,1873,Incorrect
4F4K_incongruent,164,353,2,108,50.71,60.98,0.06,0.96,97,2920,Incorrect
4F4K_incongruent,164,354,1,115,61.11,74.2,0.07,1.17,107,1179,Incorrect
4F4K_incongruent,164,355,2,108,11.8,38.23,0.01,0.6,108,1403,Correct
4F4K_incongruent,164,356,1,107,43.77,25.76,0.05,0.4,107,1721,Correct
4F4K_incongruent,164,357,1,115,24.86,47.21,0.03,0.74,115,1509,Correct
4F4K_incongruent,164,358,2,108,40.28,71.78,0.05,1.13,97,1572,Incorrect
4F4K_incongruent,164,359,2,108,28.08,51.45,0.03,0.81,108,905,Correct
4F4K_incongruent,164,360,1,115,50.62,64.27,0.06,1.01,107,1000,Incorrect
4F4K_incongruent,164,361,1,115,29.37,47.58,0.03,0.75,115,2639,Correct
4F4K_incongruent,164,362,1,115,64.39,75.48,0.07,1.19,107,1325,Incorrect
4F4K_incongruent,164,363,2,108,61.51,86.43,0.07,1.36,108,4519,Correct
4F4K_incongruent,164,364,2,108,69.01,84.66,0.08,1.33,108,3031,Correct
4F4K_incongruent,164,365,2,108,69.91,86.99,0.08,1.37,108,1185,Correct
4F4K_incongruent,164,366,1,107,63.1,44.01,0.07,0.69,107,1922,Correct
4F4K_incongruent,164,367,1,115,48.67,74.03,0.05,1.16,115,1293,Correct
4F4K_incongruent,164,368,1,107,74.32,56.35,0.08,0.89,107,845,Correct
4F4K_incongruent,164,369,1,115,36.71,58.39,0.04,0.92,115,523,Correct
4F4K_incongruent,164,370,2,97,39.81,24.01,0.04,0.38,108,1792,Incorrect
4F4K_incongruent,164,371,1,115,68.22,81.72,0.08,1.28,107,379,Incorrect
4F4K_incongruent,164,372,1,107,52.19,29.4,0.06,0.46,97,1212,Correct
4F4K_incongruent,164,373,1,107,76.65,49.62,0.09,0.78,107,1047,Correct
4F4K_incongruent,164,374,1,115,19.74,43.83,0.02,0.69,115,817,Correct
4F4K_incongruent,164,375,1,115,63.5,86.59,0.07,1.36,107,436,Incorrect
4F4K_incongruent,164,376,1,107,81.36,50.44,0.09,0.79,115,2686,Correct
4F4K_incongruent,164,377,1,107,64.0,31.34,0.07,0.49,107,1415,Correct
4F4K_incongruent,164,378,2,97,66.79,54.96,0.07,0.86,97,1818,Correct
4F4K_incongruent,164,379,2,97,62.29,46.53,0.07,0.73,97,751,Correct
4F4K_incongruent,164,380,1,107,37.64,24.93,0.04,0.39,115,1251,Incorrect
4F4K_incongruent,164,381,2,97,72.18,48.52,0.08,0.76,97,545,Correct
4F4K_incongruent,164,382,2,97,81.75,60.89,0.09,0.96,97,1259,Correct
4F4K_incongruent,164,383,1,115,54.39,76.92,0.06,1.21,115,1420,Correct
4F4K_incongruent,164,384,2,97,74.07,50.79,0.08,0.8,97,1388,Correct
4F4K_incongruent,164,385,2,97,60.14,29.15,0.07,0.46,97,2413,Correct
4F4K_incongruent,164,386,2,108,32.92,66.25,0.04,1.04,108,753,Correct
4F4K_incongruent,164,387,1,107,71.54,52.18,0.08,0.82,107,1735,Correct
4F4K_incongruent,164,388,2,108,27.17,53.35,0.03,0.84,108,1239,Correct
4F4K_incongruent,164,389,1,107,70.75,52.82,0.08,0.83,107,802,Correct
4F4K_incongruent,164,390,1,107,65.19,41.94,0.07,0.66,107,1400,Correct
4F4K_incongruent,164,391,2,108,37.06,50.52,0.04,0.79,97,2017,Incorrect
4F4K_incongruent,164,392,2,108,45.43,54.28,0.05,0.85,108,1106,Correct
4F4K_incongruent,164,393,1,115,62.21,79.24,0.07,1.24,115,1143,Incorrect
4F4K_incongruent,164,394,1,107,63.7,55.91,0.07,0.88,107,707,Correct
4F4K_incongruent,164,395,1,107,46.86,16.61,0.05,0.26,115,639,Incorrect
4F4K_incongruent,164,396,1,115,21.61,42.45,0.02,0.67,115,725,Correct
4F4K_incongruent,164,397,1,115,48.71,74.98,0.05,1.18,107,1027,Incorrect
4F4K_incongruent,164,398,1,107,31.87,13.08,0.04,0.21,115,901,Incorrect
