condition,subject,trial,sub_task,cat,x,y,xt,yt,resp,rt,fb
4F4K_congruent,139,0,1,115,26.61,47.81,0.03,0.75,107,36394,Incorrect
4F4K_congruent,139,1,1,115,27.58,48.73,0.03,0.77,115,3454,Correct
4F4K_congruent,139,2,1,115,12.62,35.33,0.01,0.56,115,2733,Correct
4F4K_congruent,139,3,1,115,24.61,40.69,0.03,0.64,115,1996,Correct
4F4K_congruent,139,4,1,107,88.47,67.0,0.1,1.05,115,5555,Incorrect
4F4K_congruent,139,5,1,115,37.82,48.96,0.04,0.77,115,1502,Correct
4F4K_congruent,139,6,2,97,58.08,69.54,0.06,1.09,108,6065,Incorrect
4F4K_congruent,139,7,1,115,40.45,52.34,0.05,0.82,115,2155,Correct
4F4K_congruent,139,8,2,97,57.38,68.05,0.06,1.07,108,3231,Incorrect
4F4K_congruent,139,9,1,115,15.75,37.12,0.02,0.58,115,13416,Correct
4F4K_congruent,139,10,1,115,64.78,79.58,0.07,1.25,107,2893,Incorrect
4F4K_congruent,139,11,2,97,24.48,34.96,0.03,0.55,97,5506,Correct
4F4K_congruent,139,12,1,107,67.98,56.36,0.08,0.89,115,5947,Incorrect
4F4K_congruent,139,13,2,108,68.85,51.34,0.08,0.81,108,5364,Correct
4F4K_congruent,139,14,2,108,53.44,29.36,0.06,0.46,108,2143,Correct
4F4K_congruent,139,15,1,115,29.03,51.73,0.03,0.81,115,3222,Correct
4F4K_congruent,139,16,2,97,47.12,75.55,0.05,1.19,97,3909,Correct
4F4K_congruent,139,17,2,108,84.38,55.96,0.09,0.88,97,3612,Incorrect
4F4K_congruent,139,18,1,115,37.66,57.35,0.04,0.9,107,3895,Incorrect
4F4K_congruent,139,19,2,108,33.52,13.66,0.04,0.21,108,4194,Correct
4F4K_congruent,139,20,1,107,59.04,38.11,0.07,0.6,115,3061,Incorrect
4F4K_congruent,139,21,1,107,55.51,26.44,0.06,0.42,107,1053,Correct
4F4K_congruent,139,22,1,115,47.21,59.21,0.05,0.93,107,2133,Incorrect
4F4K_congruent,139,23,1,115,45.55,67.03,0.05,1.05,115,4715,Correct
4F4K_congruent,139,24,1,107,56.26,41.14,0.06,0.65,107,5745,Correct
4F4K_congruent,139,25,1,107,56.42,28.66,0.06,0.45,107,1725,Correct
4F4K_congruent,139,26,1,115,26.74,50.75,0.03,0.8,115,4007,Correct
4F4K_congruent,139,27,2,97,34.13,64.7,0.04,1.02,108,2067,Incorrect
4F4K_congruent,139,28,2,97,67.1,86.83,0.08,1.36,108,9967,Incorrect
4F4K_congruent,139,29,1,115,25.07,50.18,0.03,0.79,107,3082,Incorrect
4F4K_congruent,139,30,2,108,46.14,23.3,0.05,0.37,108,2984,Correct
4F4K_congruent,139,31,2,108,56.21,40.99,0.06,0.64,97,3709,Incorrect
4F4K_congruent,139,32,2,108,62.77,41.91,0.07,0.66,108,1634,Correct
4F4K_congruent,139,33,1,115,56.58,78.05,0.06,1.23,115,1589,Correct
4F4K_congruent,139,34,2,97,60.16,87.38,0.07,1.37,97,773,Correct
4F4K_congruent,139,35,2,97,66.92,89.91,0.07,1.41,108,994,Incorrect
4F4K_congruent,139,36,2,97,28.89,56.59,0.03,0.89,97,1322,Correct
4F4K_congruent,139,37,1,115,43.28,50.62,0.05,0.8,107,792,Incorrect
4F4K_congruent,139,38,2,108,63.18,49.76,0.07,0.78,108,1862,Correct
4F4K_congruent,139,39,2,108,44.99,23.53,0.05,0.37,97,1636,Incorrect
4F4K_congruent,139,40,2,97,40.72,64.62,0.05,1.02,108,4421,Incorrect
4F4K_congruent,139,41,1,115,45.69,61.81,0.05,0.97,115,4547,Correct
4F4K_congruent,139,42,1,115,43.52,64.36,0.05,1.01,115,4046,Correct
4F4K_congruent,139,43,1,107,44.97,28.56,0.05,0.45,115,3229,Incorrect
4F4K_congruent,139,44,1,107,53.96,24.9,0.06,0.39,107,2707,Correct
4F4K_congruent,139,45,1,115,62.94,75.04,0.07,1.18,115,2355,Correct
4F4K_congruent,139,46,2,108,41.66,32.63,0.05,0.51,108,3607,Correct
4F4K_congruent,139,47,2,97,23.75,36.91,0.03,0.58,108,4045,Incorrect
4F4K_congruent,139,48,1,115,51.35,70.89,0.06,1.11,115,4425,Correct
4F4K_congruent,139,49,1,115,34.29,61.71,0.04,0.97,107,843,Incorrect
4F4K_congruent,139,50,1,115,22.42,34.52,0.03,0.54,115,806,Correct
4F4K_congruent,139,51,1,107,66.89,54.3,0.07,0.85,107,2711,Correct
4F4K_congruent,139,52,1,115,52.98,81.31,0.06,1.28,107,1737,Incorrect
4F4K_congruent,139,53,1,115,65.96,86.47,0.07,1.36,115,848,Correct
4F4K_congruent,139,54,2,108,65.2,47.68,0.07,0.75,97,496,Incorrect
4F4K_congruent,139,55,2,108,64.81,49.13,0.07,0.77,108,366,Correct
4F4K_congruent,139,56,2,97,62.43,84.14,0.07,1.32,108,5992,Incorrect
4F4K_congruent,139,57,1,115,59.59,68.54,0.07,1.08,115,927,Correct
4F4K_congruent,139,58,1,115,64.74,76.58,0.07,1.2,107,2639,Incorrect
4F4K_congruent,139,59,2,108,73.79,62.26,0.08,0.98,108,1133,Correct
4F4K_congruent,139,60,2,108,47.54,22.98,0.05,0.36,97,4761,Incorrect
4F4K_congruent,139,61,1,115,12.4,33.59,0.01,0.53,115,1263,Correct
4F4K_congruent,139,62,2,97,63.55,73.12,0.07,1.15,97,1029,Correct
4F4K_congruent,139,63,1,107,71.94,57.14,0.08,0.9,107,2294,Correct
4F4K_congruent,139,64,2,108,49.74,23.47,0.06,0.37,97,3243,Incorrect
4F4K_congruent,139,65,1,115,45.11,71.08,0.05,1.12,115,1081,Correct
4F4K_congruent,139,66,1,115,36.18,62.85,0.04,0.99,115,1079,Correct
4F4K_congruent,139,67,2,97,64.83,85.46,0.07,1.34,97,1704,Correct
4F4K_congruent,139,68,2,97,37.88,61.8,0.04,0.97,108,2546,Incorrect
4F4K_congruent,139,69,2,108,79.65,67.33,0.09,1.06,97,819,Incorrect
4F4K_congruent,139,70,1,115,43.0,53.39,0.05,0.84,107,1344,Incorrect
4F4K_congruent,139,71,2,108,68.18,48.98,0.08,0.77,97,978,Incorrect
4F4K_congruent,139,72,1,107,71.1,52.17,0.08,0.82,107,2132,Correct
4F4K_congruent,139,73,2,97,50.86,68.83,0.06,1.08,97,841,Correct
4F4K_congruent,139,74,1,107,40.13,22.85,0.04,0.36,115,2147,Incorrect
4F4K_congruent,139,75,2,108,73.51,52.4,0.08,0.82,97,740,Incorrect
4F4K_congruent,139,76,2,108,70.13,43.95,0.08,0.69,108,1464,Correct
4F4K_congruent,139,77,2,97,50.68,75.12,0.06,1.18,97,1230,Correct
4F4K_congruent,139,78,1,115,46.3,73.84,0.05,1.16,115,893,Correct
4F4K_congruent,139,79,2,108,31.29,11.65,0.04,0.18,108,1321,Correct
4F4K_congruent,139,80,2,108,54.43,35.5,0.06,0.56,97,713,Incorrect
4F4K_congruent,139,81,1,115,58.05,79.8,0.06,1.25,107,2626,Incorrect
4F4K_congruent,139,82,1,107,57.94,35.97,0.06,0.57,115,856,Incorrect
4F4K_congruent,139,83,2,97,29.1,49.57,0.03,0.78,108,3151,Incorrect
4F4K_congruent,139,84,2,97,25.32,44.54,0.03,0.7,97,957,Correct
4F4K_congruent,139,85,2,97,37.56,48.68,0.04,0.76,108,1877,Incorrect
4F4K_congruent,139,86,1,115,47.94,74.96,0.05,1.18,115,1191,Correct
4F4K_congruent,139,87,2,97,19.03,32.18,0.02,0.51,108,2410,Incorrect
4F4K_congruent,139,88,1,107,71.53,42.78,0.08,0.67,115,9333,Incorrect
4F4K_congruent,139,89,2,97,20.31,42.64,0.02,0.67,108,760,Incorrect
4F4K_congruent,139,90,2,108,80.26,58.48,0.09,0.92,97,813,Incorrect
4F4K_congruent,139,91,1,115,32.57,47.02,0.04,0.74,107,1051,Incorrect
4F4K_congruent,139,92,2,97,20.47,37.2,0.02,0.58,97,818,Correct
4F4K_congruent,139,93,1,115,36.28,47.46,0.04,0.75,115,1153,Correct
4F4K_congruent,139,94,2,108,57.22,36.05,0.06,0.57,108,915,Correct
4F4K_congruent,139,95,1,107,51.12,29.69,0.06,0.47,107,1491,Correct
4F4K_congruent,139,96,1,107,60.95,53.56,0.07,0.84,107,911,Correct
4F4K_congruent,139,97,1,115,17.8,43.93,0.02,0.69,107,2820,Incorrect
4F4K_congruent,139,98,1,115,22.22,45.03,0.02,0.71,115,1472,Correct
4F4K_congruent,139,99,2,97,28.58,47.8,0.03,0.75,97,1626,Correct
4F4K_congruent,139,100,2,97,35.38,52.66,0.04,0.83,97,784,Correct
4F4K_congruent,139,101,1,115,14.29,30.46,0.02,0.48,107,2425,Incorrect
4F4K_congruent,139,102,2,108,42.63,14.57,0.05,0.23,97,899,Incorrect
4F4K_congruent,139,103,2,108,72.05,52.26,0.08,0.82,97,1105,Incorrect
4F4K_congruent,139,104,1,107,81.72,56.36,0.09,0.89,107,1831,Correct
4F4K_congruent,139,105,2,97,15.42,33.7,0.02,0.53,108,1024,Incorrect
4F4K_congruent,139,106,2,97,27.45,39.79,0.03,0.63,97,798,Correct
4F4K_congruent,139,107,1,115,24.73,51.72,0.03,0.81,107,3577,Incorrect
4F4K_congruent,139,108,2,108,74.51,61.62,0.08,0.97,97,773,Incorrect
4F4K_congruent,139,109,2,108,41.77,21.84,0.05,0.34,97,1528,Incorrect
4F4K_congruent,139,110,1,107,69.11,38.42,0.08,0.6,107,830,Correct
4F4K_congruent,139,111,2,108,56.75,43.85,0.06,0.69,97,1637,Incorrect
4F4K_congruent,139,112,1,115,21.45,37.85,0.02,0.59,107,1678,Incorrect
4F4K_congruent,139,113,1,115,50.4,67.28,0.06,1.06,115,1253,Correct
4F4K_congruent,139,114,2,97,39.58,60.25,0.04,0.95,108,2827,Incorrect
4F4K_congruent,139,115,2,97,29.74,41.12,0.03,0.65,108,2595,Incorrect
4F4K_congruent,139,116,2,108,32.24,16.87,0.04,0.27,97,934,Incorrect
4F4K_congruent,139,117,1,107,59.76,31.23,0.07,0.49,115,1457,Incorrect
4F4K_congruent,139,118,1,107,72.94,58.58,0.08,0.92,107,524,Correct
4F4K_congruent,139,119,1,107,42.49,20.25,0.05,0.32,115,1246,Incorrect
4F4K_congruent,139,120,2,108,77.51,48.84,0.09,0.77,97,1132,Incorrect
4F4K_congruent,139,121,1,115,66.44,78.45,0.07,1.23,115,2566,Correct
4F4K_congruent,139,122,2,108,73.32,60.94,0.08,0.96,97,6822,Incorrect
4F4K_congruent,139,123,2,108,47.81,26.79,0.05,0.42,108,6394,Correct
4F4K_congruent,139,124,2,97,67.51,81.32,0.08,1.28,108,1479,Incorrect
4F4K_congruent,139,125,2,108,45.71,20.39,0.05,0.32,97,3655,Incorrect
4F4K_congruent,139,126,1,107,85.71,63.71,0.1,1.0,115,6706,Incorrect
4F4K_congruent,139,127,2,97,53.44,71.63,0.06,1.13,97,1058,Correct
4F4K_congruent,139,128,1,107,71.39,50.65,0.08,0.8,115,781,Incorrect
4F4K_congruent,139,129,1,107,86.58,66.44,0.1,1.04,107,1215,Correct
4F4K_congruent,139,130,2,108,47.04,18.67,0.05,0.29,97,1197,Incorrect
4F4K_congruent,139,131,2,97,59.47,80.14,0.07,1.26,97,1387,Correct
4F4K_congruent,139,132,1,107,76.31,54.16,0.09,0.85,115,1548,Incorrect
4F4K_congruent,139,133,1,115,43.33,51.07,0.05,0.8,107,1587,Incorrect
4F4K_congruent,139,134,2,97,12.06,37.94,0.01,0.6,97,1880,Correct
4F4K_congruent,139,135,1,107,72.5,39.91,0.08,0.63,107,905,Correct
4F4K_congruent,139,136,1,115,25.81,48.62,0.03,0.76,115,1248,Correct
4F4K_congruent,139,137,1,115,28.62,57.77,0.03,0.91,115,871,Correct
4F4K_congruent,139,138,1,107,70.92,51.35,0.08,0.81,115,2023,Incorrect
4F4K_congruent,139,139,2,108,61.92,47.65,0.07,0.75,108,2229,Incorrect
4F4K_congruent,139,140,2,108,71.25,50.45,0.08,0.79,97,1189,Incorrect
4F4K_congruent,139,141,2,97,11.9,32.05,0.01,0.5,97,1902,Correct
4F4K_congruent,139,142,1,107,63.12,45.55,0.07,0.72,115,1387,Incorrect
4F4K_congruent,139,143,1,115,54.67,69.03,0.06,1.08,115,1252,Correct
4F4K_congruent,139,144,2,108,55.48,48.8,0.06,0.77,97,1239,Incorrect
4F4K_congruent,139,145,1,115,26.34,58.12,0.03,0.91,115,731,Correct
4F4K_congruent,139,146,1,107,54.12,22.16,0.06,0.35,107,4411,Correct
4F4K_congruent,139,147,2,97,57.31,69.03,0.06,1.08,97,2623,Correct
4F4K_congruent,139,148,1,107,79.2,54.81,0.09,0.86,107,1302,Correct
4F4K_congruent,139,149,1,107,88.58,63.86,0.1,1.0,115,1306,Incorrect
4F4K_congruent,139,150,1,107,80.16,57.02,0.09,0.9,115,1875,Incorrect
4F4K_congruent,139,151,2,108,74.94,47.01,0.08,0.74,97,656,Incorrect
4F4K_congruent,139,152,2,97,16.74,40.5,0.02,0.64,97,942,Correct
4F4K_congruent,139,153,1,107,48.84,32.59,0.05,0.51,115,947,Incorrect
4F4K_congruent,139,154,2,97,13.44,31.1,0.02,0.49,97,1079,Correct
4F4K_congruent,139,155,2,108,77.03,59.35,0.09,0.93,97,1193,Incorrect
4F4K_congruent,139,156,1,115,38.7,58.08,0.04,0.91,115,853,Correct
4F4K_congruent,139,157,1,107,58.71,42.51,0.07,0.67,115,1136,Incorrect
4F4K_congruent,139,158,2,97,44.22,60.4,0.05,0.95,108,1508,Incorrect
4F4K_congruent,139,159,1,115,54.25,68.9,0.06,1.08,115,1752,Correct
4F4K_congruent,139,160,1,107,46.12,34.81,0.05,0.55,115,808,Incorrect
4F4K_congruent,139,161,1,115,12.78,31.13,0.01,0.49,115,627,Correct
4F4K_congruent,139,162,1,107,41.97,29.67,0.05,0.47,107,4603,Correct
4F4K_congruent,139,163,1,107,62.56,45.86,0.07,0.72,115,2504,Incorrect
4F4K_congruent,139,164,1,115,41.82,66.04,0.05,1.04,115,2157,Correct
4F4K_congruent,139,165,1,107,74.67,44.06,0.08,0.69,115,806,Incorrect
4F4K_congruent,139,166,2,108,42.33,20.31,0.05,0.32,97,1863,Incorrect
4F4K_congruent,139,167,1,115,31.42,48.03,0.04,0.75,115,2491,Correct
4F4K_congruent,139,168,2,108,37.23,16.45,0.04,0.26,108,1613,Correct
4F4K_congruent,139,169,1,115,41.17,53.66,0.05,0.84,115,4389,Correct
4F4K_congruent,139,170,2,97,35.95,46.98,0.04,0.74,97,9536,Correct
4F4K_congruent,139,171,1,115,54.86,74.22,0.06,1.17,115,2627,Correct
4F4K_congruent,139,172,2,97,33.28,43.14,0.04,0.68,97,4549,Correct
4F4K_congruent,139,173,2,97,51.59,73.56,0.06,1.16,97,6237,Correct
4F4K_congruent,139,174,1,107,73.02,45.96,0.08,0.72,115,3017,Incorrect
4F4K_congruent,139,175,1,115,25.74,50.81,0.03,0.8,115,912,Correct
4F4K_congruent,139,176,2,97,35.03,58.95,0.04,0.93,97,1793,Correct
4F4K_congruent,139,177,2,108,60.24,49.62,0.07,0.78,108,2084,Correct
4F4K_congruent,139,178,2,108,87.77,68.17,0.1,1.07,97,1650,Incorrect
4F4K_congruent,139,179,2,97,21.83,40.56,0.02,0.64,108,4629,Incorrect
4F4K_congruent,139,180,2,97,33.81,57.57,0.04,0.9,97,1256,Correct
4F4K_congruent,139,181,2,97,19.99,46.83,0.02,0.74,97,4047,Correct
4F4K_congruent,139,182,1,115,51.9,78.23,0.06,1.23,107,2257,Incorrect
4F4K_congruent,139,183,1,107,52.29,35.45,0.06,0.56,115,3982,Incorrect
4F4K_congruent,139,184,1,107,39.65,24.71,0.04,0.39,115,1739,Incorrect
4F4K_congruent,139,185,2,97,25.98,57.93,0.03,0.91,97,2104,Correct
4F4K_congruent,139,186,1,107,33.48,14.84,0.04,0.23,115,1129,Incorrect
4F4K_congruent,139,187,1,107,78.75,64.01,0.09,1.01,107,1887,Correct
4F4K_congruent,139,188,1,115,22.9,35.35,0.03,0.56,115,2049,Correct
4F4K_congruent,139,189,2,108,40.66,31.48,0.05,0.49,108,2816,Correct
4F4K_congruent,139,190,1,107,61.72,43.14,0.07,0.68,107,3273,Correct
4F4K_congruent,139,191,2,97,21.88,38.7,0.02,0.61,97,1809,Correct
4F4K_congruent,139,192,2,108,74.38,52.81,0.08,0.83,108,808,Correct
4F4K_congruent,139,193,2,97,63.65,83.25,0.07,1.31,97,3453,Correct
4F4K_congruent,139,194,2,108,43.87,21.19,0.05,0.33,108,4610,Correct
4F4K_congruent,139,195,1,115,67.48,81.04,0.08,1.27,107,3839,Incorrect
4F4K_congruent,139,196,1,107,64.73,55.16,0.07,0.87,115,1033,Incorrect
4F4K_congruent,139,197,2,108,61.61,52.81,0.07,0.83,108,2509,Correct
4F4K_congruent,139,198,1,115,24.7,49.33,0.03,0.77,115,864,Correct
4F4K_congruent,139,199,1,107,76.81,55.5,0.09,0.87,107,1310,Correct
4F4K_congruent,139,200,2,97,45.63,75.12,0.05,1.18,97,8886,Correct
4F4K_congruent,139,201,1,107,41.58,13.18,0.05,0.21,115,3499,Incorrect
4F4K_congruent,139,202,1,115,47.34,62.79,0.05,0.99,115,1162,Correct
4F4K_congruent,139,203,1,115,38.6,66.4,0.04,1.04,115,654,Correct
4F4K_congruent,139,204,1,107,70.61,56.99,0.08,0.9,115,629,Incorrect
4F4K_congruent,139,205,1,107,67.87,41.31,0.08,0.65,107,777,Correct
4F4K_congruent,139,206,2,108,48.88,38.8,0.05,0.61,97,686,Incorrect
4F4K_congruent,139,207,1,115,27.74,57.09,0.03,0.9,115,980,Correct
4F4K_congruent,139,208,1,107,47.28,37.7,0.05,0.59,115,883,Incorrect
4F4K_congruent,139,209,2,97,59.48,83.37,0.07,1.31,108,1146,Incorrect
4F4K_congruent,139,210,2,108,60.6,40.27,0.07,0.63,108,714,Correct
4F4K_congruent,139,211,1,115,36.65,57.75,0.04,0.91,115,775,Correct
4F4K_congruent,139,212,2,97,57.91,76.27,0.06,1.2,108,846,Incorrect
4F4K_congruent,139,213,1,107,42.4,17.06,0.05,0.27,115,861,Incorrect
4F4K_congruent,139,214,1,107,31.5,17.96,0.04,0.28,115,875,Incorrect
4F4K_congruent,139,215,1,107,68.94,36.46,0.08,0.57,115,2732,Incorrect
4F4K_congruent,139,216,2,97,49.1,62.5,0.05,0.98,97,1007,Correct
4F4K_congruent,139,217,2,108,82.16,57.84,0.09,0.91,108,883,Correct
4F4K_congruent,139,218,2,108,70.08,60.06,0.08,0.94,97,2601,Incorrect
4F4K_congruent,139,219,1,115,32.51,65.44,0.04,1.03,115,619,Correct
4F4K_congruent,139,220,2,97,22.3,39.34,0.02,0.62,97,888,Correct
4F4K_congruent,139,221,1,115,61.27,82.61,0.07,1.3,107,647,Incorrect
4F4K_congruent,139,222,1,107,85.49,61.96,0.1,0.97,107,1086,Correct
4F4K_congruent,139,223,1,115,51.61,80.98,0.06,1.27,115,1133,Correct
4F4K_congruent,139,224,1,107,75.6,52.87,0.08,0.83,115,960,Incorrect
4F4K_congruent,139,225,2,97,37.3,62.3,0.04,0.98,97,1934,Correct
4F4K_congruent,139,226,2,97,27.79,43.92,0.03,0.69,97,951,Correct
4F4K_congruent,139,227,1,107,65.2,36.8,0.07,0.58,107,1125,Correct
4F4K_congruent,139,228,2,108,61.53,29.91,0.07,0.47,97,6553,Incorrect
4F4K_congruent,139,229,2,108,69.19,38.02,0.08,0.6,97,809,Incorrect
4F4K_congruent,139,230,2,108,56.51,40.21,0.06,0.63,97,1954,Incorrect
4F4K_congruent,139,231,1,115,15.33,32.15,0.02,0.51,115,756,Correct
4F4K_congruent,139,232,2,108,69.51,48.62,0.08,0.76,108,1262,Correct
4F4K_congruent,139,233,2,108,44.24,32.5,0.05,0.51,97,1600,Incorrect
4F4K_congruent,139,234,1,115,58.11,71.52,0.07,1.12,107,2581,Incorrect
4F4K_congruent,139,235,1,115,60.85,87.82,0.07,1.38,115,731,Correct
4F4K_congruent,139,236,2,97,21.06,41.8,0.02,0.66,97,843,Correct
4F4K_congruent,139,237,1,115,63.56,88.1,0.07,1.38,115,1274,Correct
4F4K_congruent,139,238,2,108,49.27,19.55,0.06,0.31,97,1108,Incorrect
4F4K_congruent,139,239,1,107,79.33,58.09,0.09,0.91,107,760,Correct
4F4K_congruent,139,240,1,107,33.94,18.27,0.04,0.29,115,653,Incorrect
4F4K_congruent,139,241,1,115,30.01,49.57,0.03,0.78,108,990,Correct
4F4K_congruent,139,242,1,115,23.82,52.43,0.03,0.82,115,786,Correct
4F4K_congruent,139,243,2,108,70.58,41.81,0.08,0.66,108,708,Correct
4F4K_congruent,139,244,1,107,69.93,60.47,0.08,0.95,107,1234,Correct
4F4K_congruent,139,245,2,108,73.57,47.02,0.08,0.74,108,2501,Correct
4F4K_congruent,139,246,1,107,55.18,40.55,0.06,0.64,107,2070,Correct
4F4K_congruent,139,247,1,107,44.28,19.24,0.05,0.3,107,1379,Correct
4F4K_congruent,139,248,2,97,46.85,66.27,0.05,1.04,108,2032,Incorrect
4F4K_congruent,139,249,2,97,15.61,41.79,0.02,0.66,97,762,Correct
4F4K_congruent,139,250,1,115,18.67,31.92,0.02,0.5,115,2464,Correct
4F4K_congruent,139,251,2,108,39.85,22.44,0.04,0.35,108,1934,Correct
4F4K_congruent,139,252,2,108,77.79,62.24,0.09,0.98,108,1326,Correct
4F4K_congruent,139,253,1,107,72.46,50.09,0.08,0.79,107,2572,Correct
4F4K_congruent,139,254,1,115,29.4,61.14,0.03,0.96,115,1213,Correct
4F4K_congruent,139,255,1,107,43.1,35.32,0.05,0.55,107,2094,Correct
4F4K_congruent,139,256,1,115,43.44,51.86,0.05,0.81,115,2983,Correct
4F4K_congruent,139,257,1,115,30.89,59.59,0.03,0.94,115,880,Correct
4F4K_congruent,139,258,1,107,32.18,11.52,0.04,0.18,115,1581,Incorrect
4F4K_congruent,139,259,1,107,68.78,58.21,0.08,0.91,107,1077,Correct
4F4K_congruent,139,260,1,115,43.71,68.35,0.05,1.07,107,1010,Incorrect
4F4K_congruent,139,261,1,115,41.64,52.05,0.05,0.82,115,1411,Correct
4F4K_congruent,139,262,2,97,56.55,75.29,0.06,1.18,97,858,Correct
4F4K_congruent,139,263,2,108,76.99,57.68,0.09,0.91,108,1015,Correct
4F4K_congruent,139,264,2,108,74.79,44.95,0.08,0.71,97,990,Incorrect
4F4K_congruent,139,265,2,108,72.69,53.3,0.08,0.84,108,1028,Correct
4F4K_congruent,139,266,1,115,19.08,38.58,0.02,0.61,115,1811,Correct
4F4K_congruent,139,267,2,97,49.41,80.45,0.06,1.26,108,1497,Incorrect
4F4K_congruent,139,268,2,108,78.41,54.87,0.09,0.86,97,11,Incorrect
4F4K_congruent,139,269,1,115,48.54,73.28,0.05,1.15,115,622,Correct
4F4K_congruent,139,270,2,97,42.25,56.18,0.05,0.88,97,1110,Correct
4F4K_congruent,139,271,2,108,82.56,63.38,0.09,1.0,97,859,Incorrect
4F4K_congruent,139,272,2,108,38.79,27.68,0.04,0.43,97,863,Incorrect
4F4K_congruent,139,273,1,115,26.52,46.13,0.03,0.72,115,1180,Correct
4F4K_congruent,139,274,2,108,42.47,25.96,0.05,0.41,97,2751,Incorrect
4F4K_congruent,139,275,1,115,48.55,68.45,0.05,1.08,115,1855,Correct
4F4K_congruent,139,276,2,97,47.58,62.55,0.05,0.98,97,1240,Correct
4F4K_congruent,139,277,1,107,41.73,30.6,0.05,0.48,115,658,Incorrect
4F4K_congruent,139,278,2,108,57.16,32.37,0.06,0.51,97,655,Incorrect
4F4K_congruent,139,279,2,108,73.37,55.81,0.08,0.88,97,1204,Incorrect
4F4K_congruent,139,280,1,115,41.74,74.26,0.05,1.17,115,1267,Correct
4F4K_congruent,139,281,1,115,58.55,79.24,0.07,1.24,115,943,Correct
4F4K_congruent,139,282,1,107,61.77,33.05,0.07,0.52,107,838,Correct
4F4K_congruent,139,283,1,107,39.01,29.26,0.04,0.46,115,885,Incorrect
4F4K_congruent,139,284,1,107,61.33,46.8,0.07,0.74,107,764,Correct
4F4K_congruent,139,285,1,115,66.09,77.56,0.07,1.22,107,1647,Incorrect
4F4K_congruent,139,286,2,108,48.88,31.41,0.05,0.49,97,853,Incorrect
4F4K_congruent,139,287,2,97,33.12,59.92,0.04,0.94,97,915,Correct
4F4K_congruent,139,288,1,107,78.58,66.18,0.09,1.04,115,751,Incorrect
4F4K_congruent,139,289,2,108,73.57,44.45,0.08,0.7,108,1292,Correct
4F4K_congruent,139,290,1,115,61.64,72.2,0.07,1.13,115,727,Correct
4F4K_congruent,139,291,1,107,60.92,35.89,0.07,0.56,115,760,Incorrect
4F4K_congruent,139,292,2,108,45.05,37.78,0.05,0.59,97,2000,Incorrect
4F4K_congruent,139,293,2,97,54.59,83.37,0.06,1.31,97,758,Correct
4F4K_congruent,139,294,2,108,49.64,25.57,0.06,0.4,97,720,Incorrect
4F4K_congruent,139,295,1,115,36.67,61.54,0.04,0.97,115,1254,Correct
4F4K_congruent,139,296,2,108,53.08,24.87,0.06,0.39,97,1250,Incorrect
4F4K_congruent,139,297,2,97,44.73,66.99,0.05,1.05,97,1387,Correct
4F4K_congruent,139,298,2,108,80.26,64.16,0.09,1.01,97,2431,Incorrect
4F4K_congruent,139,299,1,115,31.1,52.79,0.03,0.83,115,815,Correct
4F4K_congruent,139,300,1,107,68.77,47.69,0.08,0.75,107,1101,Correct
4F4K_congruent,139,301,2,97,52.15,71.89,0.06,1.13,97,1330,Correct
4F4K_congruent,139,302,2,108,82.96,67.1,0.09,1.05,97,1101,Incorrect
4F4K_congruent,139,303,2,108,40.41,26.65,0.05,0.42,97,1306,Incorrect
4F4K_congruent,139,304,1,115,40.61,72.91,0.05,1.15,115,1920,Correct
4F4K_congruent,139,305,1,107,83.94,61.75,0.09,0.97,107,608,Correct
4F4K_congruent,139,306,1,107,49.89,40.52,0.06,0.64,107,1704,Correct
4F4K_congruent,139,307,1,115,39.59,58.65,0.04,0.92,115,616,Correct
4F4K_congruent,139,308,1,107,44.81,29.3,0.05,0.46,115,655,Incorrect
4F4K_congruent,139,309,2,97,45.19,67.2,0.05,1.06,97,1675,Correct
4F4K_congruent,139,310,1,107,46.01,29.49,0.05,0.46,115,627,Incorrect
4F4K_congruent,139,311,2,108,54.77,33.18,0.06,0.52,108,1128,Correct
4F4K_congruent,139,312,1,107,40.62,26.04,0.05,0.41,115,675,Incorrect
4F4K_congruent,139,313,2,97,55.82,65.67,0.06,1.03,108,870,Incorrect
4F4K_congruent,139,314,2,97,35.94,60.62,0.04,0.95,97,655,Correct
4F4K_congruent,139,315,1,107,65.09,41.51,0.07,0.65,107,698,Correct
4F4K_congruent,139,316,2,108,54.98,40.95,0.06,0.64,108,775,Correct
4F4K_congruent,139,317,1,115,37.79,45.41,0.04,0.71,115,598,Correct
4F4K_congruent,139,318,2,97,36.99,46.08,0.04,0.72,97,761,Correct
4F4K_congruent,139,319,1,107,62.39,46.36,0.07,0.73,107,476,Correct
4F4K_congruent,139,320,2,97,55.88,77.35,0.06,1.22,97,744,Correct
4F4K_congruent,139,321,2,97,49.26,71.62,0.06,1.13,108,685,Incorrect
4F4K_congruent,139,322,2,108,69.15,38.73,0.08,0.61,97,505,Incorrect
4F4K_congruent,139,323,2,97,45.94,53.38,0.05,0.84,108,961,Incorrect
4F4K_congruent,139,324,2,108,55.82,29.95,0.06,0.47,97,801,Incorrect
4F4K_congruent,139,325,2,108,59.96,52.57,0.07,0.83,108,776,Correct
4F4K_congruent,139,326,2,108,74.17,64.08,0.08,1.01,97,717,Incorrect
4F4K_congruent,139,327,1,107,49.59,29.61,0.06,0.47,115,772,Incorrect
4F4K_congruent,139,328,1,107,55.0,22.72,0.06,0.36,115,1311,Incorrect
4F4K_congruent,139,329,1,107,73.84,56.31,0.08,0.88,115,545,Incorrect
4F4K_congruent,139,330,1,115,57.42,83.52,0.06,1.31,115,704,Correct
4F4K_congruent,139,331,2,97,41.61,51.45,0.05,0.81,108,816,Incorrect
4F4K_congruent,139,332,2,97,63.99,83.11,0.07,1.31,97,850,Correct
4F4K_congruent,139,333,1,115,44.6,58.29,0.05,0.92,115,754,Correct
4F4K_congruent,139,334,2,97,32.7,45.89,0.04,0.72,97,750,Correct
4F4K_congruent,139,335,1,107,47.26,29.15,0.05,0.46,115,768,Incorrect
4F4K_congruent,139,336,1,107,43.96,20.73,0.05,0.33,115,810,Incorrect
4F4K_congruent,139,337,2,108,39.36,25.08,0.04,0.39,97,793,Incorrect
4F4K_congruent,139,338,1,107,48.82,39.4,0.05,0.62,115,705,Incorrect
4F4K_congruent,139,339,2,108,77.4,56.08,0.09,0.88,97,831,Incorrect
4F4K_congruent,139,340,1,107,31.93,12.1,0.04,0.19,115,951,Incorrect
4F4K_congruent,139,341,2,97,51.83,71.94,0.06,1.13,97,775,Correct
4F4K_congruent,139,342,2,108,36.57,22.73,0.04,0.36,97,757,Incorrect
4F4K_congruent,139,343,2,108,66.83,47.74,0.07,0.75,97,1156,Incorrect
4F4K_congruent,139,344,1,115,28.12,49.84,0.03,0.78,115,984,Correct
4F4K_congruent,139,345,1,107,35.55,23.09,0.04,0.36,107,1051,Correct
4F4K_congruent,139,346,1,107,51.35,27.65,0.06,0.43,107,1289,Correct
4F4K_congruent,139,347,1,107,58.38,28.68,0.07,0.45,115,759,Incorrect
4F4K_congruent,139,348,1,115,18.83,40.53,0.02,0.64,115,847,Correct
4F4K_congruent,139,349,1,107,32.07,12.43,0.04,0.2,107,1069,Correct
4F4K_congruent,139,350,1,115,47.25,63.67,0.05,1.0,107,1004,Incorrect
4F4K_congruent,139,351,2,97,48.79,73.31,0.05,1.15,108,2674,Correct
4F4K_congruent,139,352,2,97,38.04,52.88,0.04,0.83,97,1946,Correct
4F4K_congruent,139,353,1,115,20.85,37.94,0.02,0.6,115,1436,Correct
4F4K_congruent,139,354,2,108,58.75,27.5,0.07,0.43,108,1226,Correct
4F4K_congruent,139,355,1,107,51.06,22.11,0.06,0.35,107,1190,Correct
4F4K_congruent,139,356,2,97,27.39,50.64,0.03,0.8,97,2218,Correct
4F4K_congruent,139,357,2,97,53.13,82.33,0.06,1.29,97,1024,Correct
4F4K_congruent,139,358,1,115,51.76,77.74,0.06,1.22,115,923,Correct
4F4K_congruent,139,359,1,107,86.22,58.0,0.1,0.91,107,829,Correct
4F4K_congruent,139,360,2,97,67.74,85.03,0.08,1.34,108,803,Incorrect
4F4K_congruent,139,361,1,107,64.61,51.93,0.07,0.82,115,580,Incorrect
4F4K_congruent,139,362,1,107,84.12,57.44,0.09,0.9,107,713,Correct
4F4K_congruent,139,363,1,107,71.95,61.38,0.08,0.96,107,867,Correct
4F4K_congruent,139,364,1,107,66.95,43.62,0.07,0.69,115,1591,Incorrect
4F4K_congruent,139,365,1,115,56.44,70.87,0.06,1.11,107,899,Incorrect
4F4K_congruent,139,366,1,115,25.36,42.21,0.03,0.66,115,670,Correct
4F4K_congruent,139,367,2,97,34.03,43.21,0.04,0.68,97,624,Correct
4F4K_congruent,139,368,2,108,74.88,47.44,0.08,0.75,108,361,Correct
4F4K_congruent,139,369,1,115,55.92,63.31,0.06,0.99,115,333,Correct
4F4K_congruent,139,370,2,97,36.63,47.21,0.04,0.74,97,535,Correct
4F4K_congruent,139,371,2,97,50.68,66.74,0.06,1.05,108,493,Incorrect
4F4K_congruent,139,372,1,107,50.4,25.88,0.06,0.41,107,812,Correct
4F4K_congruent,139,373,2,108,85.9,65.4,0.1,1.03,108,618,Correct
4F4K_congruent,139,374,2,97,32.18,52.47,0.04,0.82,97,863,Correct
4F4K_congruent,139,375,2,108,74.18,52.75,0.08,0.83,108,814,Correct
4F4K_congruent,139,376,2,97,11.41,32.19,0.01,0.51,97,704,Correct
4F4K_congruent,139,377,1,115,51.32,67.74,0.06,1.06,115,1009,Correct
4F4K_congruent,139,378,2,108,67.84,57.99,0.08,0.91,108,530,Correct
4F4K_congruent,139,379,2,97,21.96,49.46,0.02,0.78,97,663,Correct
4F4K_congruent,139,380,1,107,86.11,57.56,0.1,0.9,107,593,Correct
4F4K_congruent,139,381,1,115,35.13,66.13,0.04,1.04,115,708,Correct
4F4K_congruent,139,382,1,115,31.84,42.46,0.04,0.67,115,753,Correct
4F4K_congruent,139,383,2,97,58.92,82.57,0.07,1.3,97,1315,Correct
4F4K_congruent,139,384,1,107,52.77,24.38,0.06,0.38,107,2307,Correct
4F4K_congruent,139,385,2,108,83.05,64.4,0.09,1.01,108,1297,Correct
4F4K_congruent,139,386,2,108,59.23,43.29,0.07,0.68,97,1244,Incorrect
4F4K_congruent,139,387,2,97,39.76,66.85,0.04,1.05,97,630,Correct
4F4K_congruent,139,388,2,97,20.56,38.86,0.02,0.61,97,530,Correct
4F4K_congruent,139,389,1,115,57.42,82.48,0.06,1.3,115,1197,Correct
4F4K_congruent,139,390,1,107,63.48,41.47,0.07,0.65,107,1682,Correct
4F4K_congruent,139,391,1,115,33.33,55.17,0.04,0.87,115,744,Correct
4F4K_congruent,139,392,2,108,60.84,39.59,0.07,0.62,97,2150,Incorrect
4F4K_congruent,139,393,2,108,37.16,24.99,0.04,0.39,97,763,Incorrect
4F4K_congruent,139,394,2,108,41.82,30.92,0.05,0.49,97,944,Incorrect
4F4K_congruent,139,395,1,115,27.69,53.27,0.03,0.84,115,788,Correct
4F4K_congruent,139,396,1,115,59.34,78.49,0.07,1.23,107,827,Incorrect
4F4K_congruent,139,397,1,115,35.78,65.96,0.04,1.04,107,808,Incorrect
4F4K_congruent,139,398,1,107,51.55,27.49,0.06,0.43,107,769,Correct
