condition,subject,trial,sub_task,cat,x,y,xt,yt,resp,rt,fb
4F4K_incongruent,72,0,2,97,35.75,22.47,0.04,0.35,108,32304,Incorrect
4F4K_incongruent,72,1,1,115,10.5,31.44,0.01,0.49,107,5554,Incorrect
4F4K_incongruent,72,2,2,108,58.13,82.07,0.07,1.29,108,5610,Correct
4F4K_incongruent,72,3,2,97,48.28,32.91,0.05,0.52,97,2389,Correct
4F4K_incongruent,72,4,1,107,53.96,38.92,0.06,0.61,107,3556,Correct
4F4K_incongruent,72,5,1,115,53.97,63.59,0.06,1.0,107,2988,Incorrect
4F4K_incongruent,72,6,1,107,70.95,47.78,0.08,0.75,115,18789,Incorrect
4F4K_incongruent,72,7,2,108,46.34,63.25,0.05,0.99,97,6068,Incorrect
4F4K_incongruent,72,8,2,108,29.25,43.67,0.03,0.69,97,2510,Incorrect
4F4K_incongruent,72,9,2,97,70.07,58.44,0.08,0.92,97,2877,Correct
4F4K_incongruent,72,10,2,108,45.76,68.8,0.05,1.08,108,2233,Correct
4F4K_incongruent,72,11,1,115,65.69,80.33,0.07,1.26,107,2403,Incorrect
4F4K_incongruent,72,12,2,97,83.12,62.92,0.09,0.99,97,2069,Correct
4F4K_incongruent,72,13,2,108,20.5,43.15,0.02,0.68,108,30184,Correct
4F4K_incongruent,72,14,2,97,70.27,59.0,0.08,0.93,97,2723,Correct
4F4K_incongruent,72,15,2,108,54.99,80.49,0.06,1.26,97,6483,Incorrect
4F4K_incongruent,72,16,2,108,40.05,51.96,0.04,0.82,97,16600,Incorrect
4F4K_incongruent,72,17,2,108,33.2,49.92,0.04,0.78,108,1793,Correct
4F4K_incongruent,72,18,1,107,52.82,29.64,0.06,0.47,107,1726,Correct
4F4K_incongruent,72,19,1,115,19.85,48.14,0.02,0.76,115,1107,Correct
4F4K_incongruent,72,20,1,107,42.09,30.18,0.05,0.47,107,7846,Correct
4F4K_incongruent,72,21,1,107,41.98,21.52,0.05,0.34,115,8479,Incorrect
4F4K_incongruent,72,22,2,97,48.82,36.37,0.05,0.57,97,2659,Correct
4F4K_incongruent,72,23,2,97,56.34,30.35,0.06,0.48,97,2147,Correct
4F4K_incongruent,72,24,2,108,31.55,48.89,0.04,0.77,108,2513,Correct
4F4K_incongruent,72,25,1,115,42.04,60.47,0.05,0.95,107,7796,Incorrect
4F4K_incongruent,72,26,2,108,60.94,75.25,0.07,1.18,97,1492,Incorrect
4F4K_incongruent,72,27,1,107,76.99,65.38,0.09,1.03,107,3476,Correct
4F4K_incongruent,72,28,2,108,35.88,63.11,0.04,0.99,108,2417,Correct
4F4K_incongruent,72,29,1,115,41.16,68.85,0.05,1.08,107,11189,Incorrect
4F4K_incongruent,72,30,1,115,20.8,37.54,0.02,0.59,115,4389,Correct
4F4K_incongruent,72,31,2,108,59.18,71.64,0.07,1.13,97,1657,Incorrect
4F4K_incongruent,72,32,2,108,33.87,45.1,0.04,0.71,108,3851,Correct
4F4K_incongruent,72,33,2,108,62.84,83.24,0.07,1.31,97,1282,Incorrect
4F4K_incongruent,72,34,1,107,82.43,62.66,0.09,0.98,107,5226,Correct
4F4K_incongruent,72,35,2,97,62.81,39.34,0.07,0.62,97,3039,Correct
4F4K_incongruent,72,36,1,107,65.59,51.66,0.07,0.81,107,2274,Correct
4F4K_incongruent,72,37,2,97,64.56,32.67,0.07,0.51,97,3221,Correct
4F4K_incongruent,72,38,2,108,21.54,45.94,0.02,0.72,108,2612,Correct
4F4K_incongruent,72,39,2,97,50.96,21.03,0.06,0.33,97,3502,Correct
4F4K_incongruent,72,40,2,97,57.61,32.52,0.06,0.51,97,5062,Correct
4F4K_incongruent,72,41,2,97,40.28,17.77,0.05,0.28,108,2279,Incorrect
4F4K_incongruent,72,42,1,115,49.65,66.23,0.06,1.04,115,4503,Correct
4F4K_incongruent,72,43,2,108,28.88,52.1,0.03,0.82,108,1679,Correct
4F4K_incongruent,72,44,2,97,64.06,54.41,0.07,0.85,97,1716,Correct
4F4K_incongruent,72,45,1,115,56.06,68.62,0.06,1.08,107,11068,Incorrect
4F4K_incongruent,72,46,2,97,46.13,33.91,0.05,0.53,97,4814,Correct
4F4K_incongruent,72,47,1,115,37.51,61.39,0.04,0.96,115,6058,Correct
4F4K_incongruent,72,48,2,97,56.68,37.16,0.06,0.58,97,3511,Correct
4F4K_incongruent,72,49,1,115,61.78,82.29,0.07,1.29,115,5250,Correct
4F4K_incongruent,72,50,1,115,47.54,67.17,0.05,1.06,115,1876,Correct
4F4K_incongruent,72,51,2,108,45.5,77.76,0.05,1.22,108,2257,Correct
4F4K_incongruent,72,52,2,108,31.95,49.31,0.04,0.77,108,3553,Correct
4F4K_incongruent,72,53,1,115,59.3,69.04,0.07,1.08,115,3359,Correct
4F4K_incongruent,72,54,1,115,20.37,43.54,0.02,0.68,107,3208,Incorrect
4F4K_incongruent,72,55,2,108,24.26,39.41,0.03,0.62,108,1664,Correct
4F4K_incongruent,72,56,2,108,55.87,78.86,0.06,1.24,97,3007,Incorrect
4F4K_incongruent,72,57,2,108,28.95,55.7,0.03,0.87,108,2205,Correct
4F4K_incongruent,72,58,2,108,69.15,83.25,0.08,1.31,108,2893,Correct
4F4K_incongruent,72,59,1,107,69.41,52.19,0.08,0.82,115,5749,Incorrect
4F4K_incongruent,72,60,2,97,74.49,52.9,0.08,0.83,108,5318,Incorrect
4F4K_incongruent,72,61,2,108,32.75,58.69,0.04,0.92,108,889,Correct
4F4K_incongruent,72,62,2,97,38.65,13.32,0.04,0.21,108,4012,Incorrect
4F4K_incongruent,72,63,1,115,39.89,63.5,0.04,1.0,115,2942,Correct
4F4K_incongruent,72,64,2,108,58.83,81.11,0.07,1.27,108,1831,Correct
4F4K_incongruent,72,65,2,108,40.62,51.44,0.05,0.81,108,1969,Correct
4F4K_incongruent,72,66,1,107,57.3,30.94,0.06,0.49,115,3801,Incorrect
4F4K_incongruent,72,67,2,108,23.64,41.49,0.03,0.65,108,2161,Correct
4F4K_incongruent,72,68,2,108,38.11,59.52,0.04,0.93,108,2084,Correct
4F4K_incongruent,72,69,1,107,71.57,48.68,0.08,0.76,115,5747,Incorrect
4F4K_incongruent,72,70,2,97,76.71,57.72,0.09,0.91,108,1689,Incorrect
4F4K_incongruent,72,71,2,97,36.25,24.92,0.04,0.39,108,3090,Incorrect
4F4K_incongruent,72,72,1,115,36.63,60.5,0.04,0.95,115,4175,Correct
4F4K_incongruent,72,73,2,108,38.72,70.45,0.04,1.11,108,1348,Correct
4F4K_incongruent,72,74,1,115,66.51,88.35,0.07,1.39,115,2033,Correct
4F4K_incongruent,72,75,2,108,14.26,35.95,0.02,0.56,108,2078,Correct
4F4K_incongruent,72,76,2,97,39.06,16.29,0.04,0.26,108,2677,Incorrect
4F4K_incongruent,72,77,2,97,68.31,57.2,0.08,0.9,97,937,Correct
4F4K_incongruent,72,78,2,97,36.05,23.22,0.04,0.36,108,3304,Incorrect
4F4K_incongruent,72,79,2,97,59.92,40.87,0.07,0.64,97,5217,Correct
4F4K_incongruent,72,80,1,107,68.22,43.48,0.08,0.68,107,4976,Correct
4F4K_incongruent,72,81,2,108,52.94,70.4,0.06,1.11,108,1680,Correct
4F4K_incongruent,72,82,2,108,51.68,70.95,0.06,1.11,108,1213,Correct
4F4K_incongruent,72,83,2,97,36.49,26.25,0.04,0.41,108,3063,Incorrect
4F4K_incongruent,72,84,1,107,35.44,24.39,0.04,0.38,115,4824,Incorrect
4F4K_incongruent,72,85,2,97,73.81,48.69,0.08,0.76,108,2047,Incorrect
4F4K_incongruent,72,86,2,97,69.81,43.81,0.08,0.69,97,2539,Correct
4F4K_incongruent,72,87,1,115,43.7,57.89,0.05,0.91,115,6935,Correct
4F4K_incongruent,72,88,1,107,75.71,63.2,0.08,0.99,115,2081,Incorrect
4F4K_incongruent,72,89,2,97,71.07,39.24,0.08,0.62,97,3180,Correct
4F4K_incongruent,72,90,2,97,64.77,54.67,0.07,0.86,97,3017,Correct
4F4K_incongruent,72,91,2,97,50.48,43.26,0.06,0.68,97,6048,Correct
4F4K_incongruent,72,92,1,115,51.36,73.87,0.06,1.16,115,2993,Correct
4F4K_incongruent,72,93,1,107,76.23,44.02,0.09,0.69,107,2549,Correct
4F4K_incongruent,72,94,2,108,35.05,49.56,0.04,0.78,108,1891,Correct
4F4K_incongruent,72,95,2,97,69.64,42.78,0.08,0.67,97,1556,Correct
4F4K_incongruent,72,96,2,108,37.85,62.75,0.04,0.99,108,1119,Correct
4F4K_incongruent,72,97,2,108,41.81,55.07,0.05,0.87,108,736,Correct
4F4K_incongruent,72,98,1,115,35.67,66.72,0.04,1.05,115,1814,Correct
4F4K_incongruent,72,99,2,108,47.49,54.78,0.05,0.86,108,2367,Correct
4F4K_incongruent,72,100,1,115,22.92,51.41,0.03,0.81,115,1636,Correct
4F4K_incongruent,72,101,1,115,66.44,78.45,0.07,1.23,107,1422,Incorrect
4F4K_incongruent,72,102,1,107,72.41,45.0,0.08,0.71,107,3184,Correct
4F4K_incongruent,72,103,2,97,59.56,49.82,0.07,0.78,97,1622,Correct
4F4K_incongruent,72,104,2,108,30.88,61.17,0.03,0.96,108,901,Correct
4F4K_incongruent,72,105,2,108,32.46,60.27,0.04,0.95,108,835,Correct
4F4K_incongruent,72,106,2,97,44.89,17.18,0.05,0.27,97,2080,Correct
4F4K_incongruent,72,107,2,97,55.53,48.86,0.06,0.77,97,1399,Correct
4F4K_incongruent,72,108,1,115,37.06,63.8,0.04,1.0,115,1440,Correct
4F4K_incongruent,72,109,1,115,22.87,44.0,0.03,0.69,115,1952,Correct
4F4K_incongruent,72,110,1,115,38.83,70.4,0.04,1.11,115,16598,Correct
4F4K_incongruent,72,111,2,108,36.53,47.83,0.04,0.75,108,1415,Correct
4F4K_incongruent,72,112,1,107,39.93,24.82,0.04,0.39,107,2245,Correct
4F4K_incongruent,72,113,1,107,65.89,41.55,0.07,0.65,107,1437,Correct
4F4K_incongruent,72,114,2,108,37.62,62.21,0.04,0.98,108,766,Correct
4F4K_incongruent,72,115,2,108,38.87,58.58,0.04,0.92,108,754,Correct
4F4K_incongruent,72,116,1,107,62.12,41.84,0.07,0.66,107,1299,Correct
4F4K_incongruent,72,117,1,115,51.87,59.14,0.06,0.93,115,2892,Correct
4F4K_incongruent,72,118,2,97,53.29,22.26,0.06,0.35,97,1112,Correct
4F4K_incongruent,72,119,2,108,47.45,60.38,0.05,0.95,108,2874,Correct
4F4K_incongruent,72,120,1,115,49.32,74.16,0.06,1.16,115,10370,Correct
4F4K_incongruent,72,121,1,115,68.06,87.72,0.08,1.38,107,1083,Incorrect
4F4K_incongruent,72,122,2,108,58.75,85.82,0.07,1.35,97,1875,Incorrect
4F4K_incongruent,72,123,1,115,64.32,76.14,0.07,1.2,107,3261,Incorrect
4F4K_incongruent,72,124,2,108,19.74,42.92,0.02,0.67,108,1231,Correct
4F4K_incongruent,72,125,2,108,30.89,49.23,0.03,0.77,108,1489,Correct
4F4K_incongruent,72,126,1,107,78.83,66.29,0.09,1.04,107,3494,Correct
4F4K_incongruent,72,127,2,97,49.19,33.0,0.06,0.52,97,2523,Correct
4F4K_incongruent,72,128,2,97,75.1,47.67,0.08,0.75,97,1865,Correct
4F4K_incongruent,72,129,2,108,25.98,43.17,0.03,0.68,108,1218,Correct
4F4K_incongruent,72,130,2,97,69.29,47.2,0.08,0.74,97,3951,Correct
4F4K_incongruent,72,131,2,97,56.16,31.52,0.06,0.5,97,4289,Correct
4F4K_incongruent,72,132,2,97,61.12,46.52,0.07,0.73,108,5474,Incorrect
4F4K_incongruent,72,133,1,115,56.63,68.82,0.06,1.08,115,5470,Correct
4F4K_incongruent,72,134,1,107,68.24,36.31,0.08,0.57,107,5856,Correct
4F4K_incongruent,72,135,1,107,58.97,41.38,0.07,0.65,107,4618,Correct
4F4K_incongruent,72,136,1,107,70.5,46.91,0.08,0.74,107,7508,Correct
4F4K_incongruent,72,137,2,97,68.25,52.04,0.08,0.82,97,3770,Correct
4F4K_incongruent,72,138,2,108,43.12,51.35,0.05,0.81,108,2573,Correct
4F4K_incongruent,72,139,2,108,24.98,38.83,0.03,0.61,108,1900,Correct
4F4K_incongruent,72,140,1,107,56.28,23.83,0.06,0.37,107,6460,Correct
4F4K_incongruent,72,141,2,97,80.69,59.34,0.09,0.93,97,2755,Correct
4F4K_incongruent,72,142,2,97,70.17,52.18,0.08,0.82,97,5508,Correct
4F4K_incongruent,72,143,1,115,18.01,42.37,0.02,0.67,115,2998,Correct
4F4K_incongruent,72,144,1,115,57.7,81.39,0.06,1.28,107,2269,Incorrect
4F4K_incongruent,72,145,1,115,47.14,61.09,0.05,0.96,115,2213,Correct
4F4K_incongruent,72,146,1,107,54.08,45.79,0.06,0.72,107,2424,Correct
4F4K_incongruent,72,147,2,97,62.27,44.45,0.07,0.7,97,1295,Correct
4F4K_incongruent,72,148,1,115,52.13,69.54,0.06,1.09,107,4629,Incorrect
4F4K_incongruent,72,149,2,108,26.82,59.25,0.03,0.93,108,1192,Correct
4F4K_incongruent,72,150,1,107,73.08,55.72,0.08,0.88,107,2790,Correct
4F4K_incongruent,72,151,1,107,44.33,33.36,0.05,0.52,115,2136,Incorrect
4F4K_incongruent,72,152,1,107,40.64,30.09,0.05,0.47,115,2500,Incorrect
4F4K_incongruent,72,153,1,107,55.93,42.17,0.06,0.66,107,2240,Correct
4F4K_incongruent,72,154,1,107,64.56,51.09,0.07,0.8,115,1438,Incorrect
4F4K_incongruent,72,155,2,97,60.9,33.86,0.07,0.53,97,5962,Correct
4F4K_incongruent,72,156,1,115,37.39,64.81,0.04,1.02,115,2339,Correct
4F4K_incongruent,72,157,1,107,34.48,14.54,0.04,0.23,107,6999,Correct
4F4K_incongruent,72,158,1,115,21.12,50.68,0.02,0.8,115,1037,Correct
4F4K_incongruent,72,159,1,115,16.84,41.53,0.02,0.65,115,4735,Correct
4F4K_incongruent,72,160,1,107,47.79,28.78,0.05,0.45,115,5688,Incorrect
4F4K_incongruent,72,161,1,107,42.76,16.23,0.05,0.25,107,1353,Correct
4F4K_incongruent,72,162,2,97,69.91,43.82,0.08,0.69,97,1906,Correct
4F4K_incongruent,72,163,1,115,50.3,72.92,0.06,1.15,115,4518,Correct
4F4K_incongruent,72,164,2,108,26.29,43.25,0.03,0.68,108,1108,Correct
4F4K_incongruent,72,165,2,108,59.65,68.48,0.07,1.08,97,947,Incorrect
4F4K_incongruent,72,166,2,108,31.52,47.94,0.04,0.75,108,938,Correct
4F4K_incongruent,72,167,1,115,51.48,69.21,0.06,1.09,115,7392,Correct
4F4K_incongruent,72,168,2,108,33.4,58.33,0.04,0.92,108,1593,Correct
4F4K_incongruent,72,169,2,97,75.33,58.14,0.08,0.91,108,5546,Incorrect
4F4K_incongruent,72,170,2,97,50.76,27.51,0.06,0.43,108,2516,Incorrect
4F4K_incongruent,72,171,1,107,44.9,35.75,0.05,0.56,115,3555,Incorrect
4F4K_incongruent,72,172,2,97,64.89,45.11,0.07,0.71,97,4959,Correct
4F4K_incongruent,72,173,1,115,55.49,83.2,0.06,1.31,115,1962,Correct
4F4K_incongruent,72,174,2,108,27.8,41.71,0.03,0.66,108,3939,Correct
4F4K_incongruent,72,175,1,107,72.13,50.09,0.08,0.79,115,2236,Incorrect
4F4K_incongruent,72,176,2,108,21.06,47.2,0.02,0.74,108,2057,Correct
4F4K_incongruent,72,177,1,107,41.95,28.5,0.05,0.45,107,3490,Correct
4F4K_incongruent,72,178,1,107,39.53,20.79,0.04,0.33,107,2291,Correct
4F4K_incongruent,72,179,1,107,71.72,43.69,0.08,0.69,115,1878,Incorrect
4F4K_incongruent,72,180,2,108,61.21,75.19,0.07,1.18,97,1730,Incorrect
4F4K_incongruent,72,181,1,115,58.44,66.36,0.07,1.04,115,5466,Correct
4F4K_incongruent,72,182,2,108,17.72,43.09,0.02,0.68,108,999,Correct
4F4K_incongruent,72,183,1,107,84.08,63.35,0.09,1.0,115,1875,Incorrect
4F4K_incongruent,72,184,2,108,23.27,44.69,0.03,0.7,108,1053,Correct
4F4K_incongruent,72,185,2,108,47.9,60.22,0.05,0.95,108,3166,Correct
4F4K_incongruent,72,186,1,107,75.85,56.19,0.08,0.88,107,5654,Correct
4F4K_incongruent,72,187,2,97,74.27,42.17,0.08,0.66,97,1618,Correct
4F4K_incongruent,72,188,1,115,20.66,48.4,0.02,0.76,115,2695,Correct
4F4K_incongruent,72,189,2,108,29.63,42.07,0.03,0.66,108,1325,Correct
4F4K_incongruent,72,190,2,97,77.69,58.03,0.09,0.91,97,3277,Correct
4F4K_incongruent,72,191,1,107,61.34,53.9,0.07,0.85,107,3759,Correct
4F4K_incongruent,72,192,1,115,55.63,63.87,0.06,1.0,115,1236,Correct
4F4K_incongruent,72,193,1,115,59.53,73.06,0.07,1.15,115,1172,Correct
4F4K_incongruent,72,194,2,108,61.2,79.71,0.07,1.25,97,2452,Incorrect
4F4K_incongruent,72,195,1,115,21.62,53.61,0.02,0.84,115,3034,Correct
4F4K_incongruent,72,196,1,115,43.11,74.49,0.05,1.17,115,1650,Correct
4F4K_incongruent,72,197,2,97,45.29,37.14,0.05,0.58,97,2272,Correct
4F4K_incongruent,72,198,1,115,17.45,44.34,0.02,0.7,115,1864,Correct
4F4K_incongruent,72,199,1,115,28.87,51.16,0.03,0.8,115,1185,Correct
4F4K_incongruent,72,200,2,108,55.64,83.52,0.06,1.31,108,3737,Correct
4F4K_incongruent,72,201,2,108,68.79,82.55,0.08,1.3,108,3236,Correct
4F4K_incongruent,72,202,1,107,77.35,56.94,0.09,0.89,107,1439,Correct
4F4K_incongruent,72,203,1,107,79.78,58.66,0.09,0.92,107,1900,Correct
4F4K_incongruent,72,204,2,97,67.41,51.91,0.08,0.82,97,9437,Correct
4F4K_incongruent,72,205,2,108,36.7,52.38,0.04,0.82,108,7916,Correct
4F4K_incongruent,72,206,1,107,33.14,14.86,0.04,0.23,107,2106,Correct
4F4K_incongruent,72,207,1,107,68.41,58.02,0.08,0.91,107,4276,Correct
4F4K_incongruent,72,208,1,107,81.33,62.9,0.09,0.99,107,3350,Correct
4F4K_incongruent,72,209,1,107,76.83,46.13,0.09,0.72,107,1875,Correct
4F4K_incongruent,72,210,2,97,72.67,60.52,0.08,0.95,97,2671,Correct
4F4K_incongruent,72,211,1,107,47.99,34.27,0.05,0.54,107,4083,Correct
4F4K_incongruent,72,212,2,97,54.69,25.81,0.06,0.41,97,7390,Correct
4F4K_incongruent,72,213,1,115,17.58,45.12,0.02,0.71,115,2076,Correct
4F4K_incongruent,72,214,1,115,46.56,73.14,0.05,1.15,115,1230,Correct
4F4K_incongruent,72,215,1,115,35.86,45.36,0.04,0.71,115,2505,Correct
4F4K_incongruent,72,216,2,108,50.32,67.01,0.06,1.05,108,2442,Correct
4F4K_incongruent,72,217,2,108,45.32,69.36,0.05,1.09,108,1586,Correct
4F4K_incongruent,72,218,1,107,75.23,59.32,0.08,0.93,107,2786,Correct
4F4K_incongruent,72,219,1,107,75.2,56.19,0.08,0.88,107,1337,Correct
4F4K_incongruent,72,220,1,115,23.47,35.33,0.03,0.55,115,997,Correct
4F4K_incongruent,72,221,2,97,82.7,58.69,0.09,0.92,97,1740,Correct
4F4K_incongruent,72,222,1,107,50.65,30.13,0.06,0.47,107,8437,Correct
4F4K_incongruent,72,223,2,97,38.77,18.5,0.04,0.29,97,3577,Correct
4F4K_incongruent,72,224,2,97,65.41,34.89,0.07,0.55,97,1282,Correct
4F4K_incongruent,72,225,1,107,39.52,20.11,0.04,0.32,107,2664,Correct
4F4K_incongruent,72,226,1,107,77.1,54.35,0.09,0.85,107,2106,Correct
4F4K_incongruent,72,227,1,115,59.89,75.27,0.07,1.18,107,1799,Incorrect
4F4K_incongruent,72,228,1,107,54.36,32.21,0.06,0.51,107,2489,Correct
4F4K_incongruent,72,229,1,115,48.76,66.43,0.05,1.04,115,906,Correct
4F4K_incongruent,72,230,2,97,46.53,21.67,0.05,0.34,97,2070,Correct
4F4K_incongruent,72,231,2,97,80.26,66.59,0.09,1.05,97,3326,Correct
4F4K_incongruent,72,232,2,97,84.63,54.84,0.09,0.86,97,2708,Correct
4F4K_incongruent,72,233,1,115,60.81,74.48,0.07,1.17,115,1960,Correct
4F4K_incongruent,72,234,1,107,75.52,51.08,0.08,0.8,107,2223,Correct
4F4K_incongruent,72,235,1,107,79.21,49.3,0.09,0.77,107,1024,Correct
4F4K_incongruent,72,236,2,97,83.8,58.34,0.09,0.92,97,1947,Correct
4F4K_incongruent,72,237,1,115,49.73,71.23,0.06,1.12,115,3435,Correct
4F4K_incongruent,72,238,2,97,79.93,59.78,0.09,0.94,97,1981,Correct
4F4K_incongruent,72,239,1,107,65.29,49.61,0.07,0.78,107,3664,Correct
4F4K_incongruent,72,240,1,107,87.91,69.1,0.1,1.09,107,1320,Correct
4F4K_incongruent,72,241,1,107,58.43,49.85,0.07,0.78,107,1274,Correct
4F4K_incongruent,72,242,2,108,42.09,58.49,0.05,0.92,108,1620,Correct
4F4K_incongruent,72,243,1,115,44.96,67.69,0.05,1.06,115,2713,Correct
4F4K_incongruent,72,244,1,107,70.72,57.85,0.08,0.91,107,856,Correct
4F4K_incongruent,72,245,2,108,32.01,44.75,0.04,0.7,108,1371,Correct
4F4K_incongruent,72,246,2,97,33.05,19.01,0.04,0.3,108,1221,Incorrect
4F4K_incongruent,72,247,1,115,53.8,68.0,0.06,1.07,115,1668,Correct
4F4K_incongruent,72,248,2,108,41.32,53.27,0.05,0.84,108,1519,Correct
4F4K_incongruent,72,249,1,107,70.57,57.01,0.08,0.9,107,3898,Correct
4F4K_incongruent,72,250,2,97,70.73,47.31,0.08,0.74,97,4032,Correct
4F4K_incongruent,72,251,1,107,69.79,43.05,0.08,0.68,107,1542,Correct
4F4K_incongruent,72,252,1,107,71.76,49.62,0.08,0.78,107,3061,Correct
4F4K_incongruent,72,253,2,108,29.15,45.34,0.03,0.71,108,2003,Correct
4F4K_incongruent,72,254,1,115,52.07,72.75,0.06,1.14,115,1136,Correct
4F4K_incongruent,72,255,1,107,58.32,27.78,0.07,0.44,107,1432,Correct
4F4K_incongruent,72,256,2,97,41.98,32.8,0.05,0.52,108,3003,Incorrect
4F4K_incongruent,72,257,1,115,52.62,62.08,0.06,0.98,115,1860,Correct
4F4K_incongruent,72,258,2,97,50.26,38.04,0.06,0.6,97,2630,Correct
4F4K_incongruent,72,259,2,97,46.25,28.77,0.05,0.45,97,2922,Correct
4F4K_incongruent,72,260,2,108,46.15,63.77,0.05,1.0,108,1560,Correct
4F4K_incongruent,72,261,1,107,87.0,62.49,0.1,0.98,107,3244,Correct
4F4K_incongruent,72,262,1,115,38.85,58.83,0.04,0.92,115,1268,Correct
4F4K_incongruent,72,263,2,108,34.84,51.22,0.04,0.8,108,2612,Correct
4F4K_incongruent,72,264,2,97,38.12,28.46,0.04,0.45,97,5560,Correct
4F4K_incongruent,72,265,1,107,62.63,53.61,0.07,0.84,107,3192,Correct
4F4K_incongruent,72,266,1,115,44.53,55.03,0.05,0.86,107,2200,Incorrect
4F4K_incongruent,72,267,2,108,54.81,70.92,0.06,1.11,108,3142,Correct
4F4K_incongruent,72,268,2,97,38.79,25.23,0.04,0.4,108,3848,Incorrect
4F4K_incongruent,72,269,1,115,35.31,66.22,0.04,1.04,115,1822,Correct
4F4K_incongruent,72,270,2,108,37.27,44.71,0.04,0.7,97,10197,Incorrect
4F4K_incongruent,72,271,1,115,27.59,52.67,0.03,0.83,115,2315,Correct
4F4K_incongruent,72,272,2,97,47.47,17.52,0.05,0.28,97,2794,Correct
4F4K_incongruent,72,273,2,108,53.99,82.39,0.06,1.29,108,4303,Correct
4F4K_incongruent,72,274,1,107,43.94,22.94,0.05,0.36,107,4094,Correct
4F4K_incongruent,72,275,1,107,49.16,30.46,0.06,0.48,107,1788,Correct
4F4K_incongruent,72,276,1,107,45.29,27.81,0.05,0.44,107,1133,Correct
4F4K_incongruent,72,277,2,97,78.28,56.54,0.09,0.89,108,6904,Incorrect
4F4K_incongruent,72,278,1,107,54.09,23.55,0.06,0.37,107,1498,Correct
4F4K_incongruent,72,279,1,107,75.43,61.86,0.08,0.97,107,4440,Correct
4F4K_incongruent,72,280,1,115,45.9,62.58,0.05,0.98,115,886,Correct
4F4K_incongruent,72,281,2,108,55.01,65.42,0.06,1.03,108,2728,Correct
4F4K_incongruent,72,282,2,108,20.06,51.7,0.02,0.81,108,1153,Correct
4F4K_incongruent,72,283,1,107,37.7,24.82,0.04,0.39,107,1602,Correct
4F4K_incongruent,72,284,1,107,51.27,29.09,0.06,0.46,107,995,Correct
4F4K_incongruent,72,285,1,107,61.24,28.2,0.07,0.44,107,577,Correct
4F4K_incongruent,72,286,1,115,52.09,82.71,0.06,1.3,115,1024,Correct
4F4K_incongruent,72,287,1,115,22.92,55.18,0.03,0.87,115,794,Correct
4F4K_incongruent,72,288,2,97,66.68,53.61,0.07,0.84,97,6630,Correct
4F4K_incongruent,72,289,2,108,59.99,71.24,0.07,1.12,108,2440,Correct
4F4K_incongruent,72,290,1,115,66.79,79.64,0.07,1.25,107,11886,Incorrect
4F4K_incongruent,72,291,1,115,58.14,72.49,0.07,1.14,115,1009,Correct
4F4K_incongruent,72,292,1,115,26.68,43.65,0.03,0.69,107,2352,Incorrect
4F4K_incongruent,72,293,1,107,33.46,14.59,0.04,0.23,107,1118,Correct
4F4K_incongruent,72,294,1,107,75.84,44.53,0.08,0.7,107,960,Correct
4F4K_incongruent,72,295,2,97,68.07,50.28,0.08,0.79,97,6085,Correct
4F4K_incongruent,72,296,1,115,41.12,53.94,0.05,0.85,115,3444,Correct
4F4K_incongruent,72,297,1,115,10.28,34.29,0.01,0.54,115,2103,Correct
4F4K_incongruent,72,298,2,97,40.02,15.76,0.04,0.25,97,3405,Correct
4F4K_incongruent,72,299,2,97,87.26,68.79,0.1,1.08,108,3686,Incorrect
4F4K_incongruent,72,300,2,97,56.55,30.68,0.06,0.48,97,1929,Correct
4F4K_incongruent,72,301,1,107,41.4,25.48,0.05,0.4,115,5151,Incorrect
4F4K_incongruent,72,302,2,108,30.97,60.83,0.03,0.96,108,1274,Correct
4F4K_incongruent,72,303,2,97,44.13,15.45,0.05,0.24,97,1158,Correct
4F4K_incongruent,72,304,2,108,66.55,86.99,0.07,1.37,97,2620,Incorrect
4F4K_incongruent,72,305,1,115,16.89,45.81,0.02,0.72,115,2585,Correct
4F4K_incongruent,72,306,1,115,25.16,50.76,0.03,0.8,115,1686,Correct
4F4K_incongruent,72,307,1,107,81.96,66.59,0.09,1.05,107,2505,Correct
4F4K_incongruent,72,308,1,107,40.82,21.02,0.05,0.33,107,4978,Correct
4F4K_incongruent,72,309,1,115,39.23,55.43,0.04,0.87,107,4399,Incorrect
4F4K_incongruent,72,310,1,115,50.18,66.33,0.06,1.04,107,1840,Incorrect
4F4K_incongruent,72,311,1,115,54.72,65.19,0.06,1.02,107,2318,Incorrect
4F4K_incongruent,72,312,2,97,49.05,25.03,0.05,0.39,97,1448,Correct
4F4K_incongruent,72,313,2,108,22.28,42.45,0.02,0.67,108,985,Correct
4F4K_incongruent,72,314,2,97,77.85,66.26,0.09,1.04,97,14400,Correct
4F4K_incongruent,72,315,1,107,82.54,62.7,0.09,0.98,107,2163,Correct
4F4K_incongruent,72,316,2,108,63.29,74.76,0.07,1.17,108,1810,Correct
4F4K_incongruent,72,317,2,97,83.33,64.9,0.09,1.02,108,2199,Incorrect
4F4K_incongruent,72,318,2,97,63.91,44.08,0.07,0.69,97,2716,Correct
4F4K_incongruent,72,319,1,115,34.81,58.24,0.04,0.91,115,2072,Correct
4F4K_incongruent,72,320,1,115,45.88,72.61,0.05,1.14,115,1207,Correct
4F4K_incongruent,72,321,1,115,36.95,68.01,0.04,1.07,115,1320,Correct
4F4K_incongruent,72,322,2,97,57.69,35.67,0.06,0.56,97,3938,Correct
4F4K_incongruent,72,323,2,108,46.66,76.05,0.05,1.19,108,2328,Correct
4F4K_incongruent,72,324,1,115,16.13,38.08,0.02,0.6,115,1320,Correct
4F4K_incongruent,72,325,2,108,50.9,66.73,0.06,1.05,108,1707,Correct
4F4K_incongruent,72,326,1,107,38.45,28.73,0.04,0.45,107,3076,Correct
4F4K_incongruent,72,327,2,97,65.28,34.85,0.07,0.55,97,7412,Correct
4F4K_incongruent,72,328,2,97,64.9,39.63,0.07,0.62,97,676,Correct
4F4K_incongruent,72,329,1,115,49.86,62.87,0.06,0.99,107,1736,Incorrect
4F4K_incongruent,72,330,1,115,31.24,56.31,0.03,0.88,115,1072,Correct
4F4K_incongruent,72,331,2,97,70.64,47.46,0.08,0.75,97,2511,Correct
4F4K_incongruent,72,332,1,107,43.09,17.66,0.05,0.28,107,2230,Correct
4F4K_incongruent,72,333,1,115,22.95,50.7,0.03,0.8,115,1379,Correct
4F4K_incongruent,72,334,2,108,11.98,37.0,0.01,0.58,108,1250,Correct
4F4K_incongruent,72,335,2,97,59.47,38.99,0.07,0.61,97,1341,Correct
4F4K_incongruent,72,336,2,108,50.4,57.9,0.06,0.91,97,4035,Incorrect
4F4K_incongruent,72,337,1,107,59.91,33.31,0.07,0.52,107,1220,Correct
4F4K_incongruent,72,338,2,97,45.23,34.68,0.05,0.54,108,2147,Incorrect
4F4K_incongruent,72,339,2,108,20.58,48.75,0.02,0.77,108,856,Correct
4F4K_incongruent,72,340,1,107,76.58,64.68,0.09,1.02,107,1408,Correct
4F4K_incongruent,72,341,1,115,59.24,87.27,0.07,1.37,107,1471,Incorrect
4F4K_incongruent,72,342,1,115,50.95,68.36,0.06,1.07,115,940,Correct
4F4K_incongruent,72,343,1,107,44.21,17.48,0.05,0.27,107,1167,Correct
4F4K_incongruent,72,344,2,108,33.71,44.07,0.04,0.69,108,644,Correct
4F4K_incongruent,72,345,1,107,60.94,43.11,0.07,0.68,107,6230,Correct
4F4K_incongruent,72,346,1,115,26.28,40.8,0.03,0.64,115,1293,Correct
4F4K_incongruent,72,347,1,107,68.48,43.61,0.08,0.69,107,1988,Correct
4F4K_incongruent,72,348,2,108,55.67,67.37,0.06,1.06,108,2588,Correct
4F4K_incongruent,72,349,1,115,29.93,49.81,0.03,0.78,115,1184,Correct
4F4K_incongruent,72,350,2,108,40.56,51.48,0.05,0.81,108,1732,Correct
4F4K_incongruent,72,351,2,108,36.58,58.11,0.04,0.91,108,844,Correct
4F4K_incongruent,72,352,2,97,77.55,57.89,0.09,0.91,97,1869,Correct
4F4K_incongruent,72,353,1,107,73.92,51.79,0.08,0.81,107,2858,Correct
4F4K_incongruent,72,354,1,107,47.93,21.95,0.05,0.34,107,1895,Correct
4F4K_incongruent,72,355,1,107,44.68,25.62,0.05,0.4,107,1471,Correct
4F4K_incongruent,72,356,1,107,52.05,22.89,0.06,0.36,107,925,Correct
4F4K_incongruent,72,357,2,108,18.74,49.86,0.02,0.78,108,748,Correct
4F4K_incongruent,72,358,2,108,26.72,41.37,0.03,0.65,108,686,Correct
4F4K_incongruent,72,359,1,107,80.7,55.72,0.09,0.88,107,1527,Correct
4F4K_incongruent,72,360,1,107,79.83,57.99,0.09,0.91,107,1364,Correct
4F4K_incongruent,72,361,1,115,51.08,76.32,0.06,1.2,115,913,Correct
4F4K_incongruent,72,362,1,107,45.44,18.48,0.05,0.29,107,934,Correct
4F4K_incongruent,72,363,1,107,66.93,48.59,0.07,0.76,107,1835,Correct
4F4K_incongruent,72,364,2,108,13.37,32.59,0.01,0.51,108,1215,Correct
4F4K_incongruent,72,365,2,108,47.35,78.14,0.05,1.23,108,2862,Correct
4F4K_incongruent,72,366,2,97,47.38,29.9,0.05,0.47,97,1453,Correct
4F4K_incongruent,72,367,1,107,45.55,27.5,0.05,0.43,107,1896,Correct
4F4K_incongruent,72,368,2,97,34.48,10.66,0.04,0.17,108,2373,Incorrect
4F4K_incongruent,72,369,1,107,42.17,15.78,0.05,0.25,107,1640,Correct
4F4K_incongruent,72,370,1,107,61.48,43.82,0.07,0.69,107,2067,Correct
4F4K_incongruent,72,371,2,97,87.92,63.91,0.1,1.0,97,1350,Correct
4F4K_incongruent,72,372,1,107,80.71,51.41,0.09,0.81,107,1208,Correct
4F4K_incongruent,72,373,1,115,58.61,81.41,0.07,1.28,115,1490,Correct
4F4K_incongruent,72,374,2,108,32.31,56.68,0.04,0.89,108,970,Correct
4F4K_incongruent,72,375,1,107,48.28,38.24,0.05,0.6,107,2633,Correct
4F4K_incongruent,72,376,1,115,60.98,80.58,0.07,1.27,115,1477,Correct
4F4K_incongruent,72,377,1,115,18.37,39.2,0.02,0.62,115,1093,Correct
4F4K_incongruent,72,378,2,97,49.17,30.97,0.06,0.49,97,1850,Correct
4F4K_incongruent,72,379,2,108,61.63,80.56,0.07,1.27,108,1789,Correct
4F4K_incongruent,72,380,2,97,51.46,26.51,0.06,0.42,97,3134,Correct
4F4K_incongruent,72,381,1,115,40.78,70.93,0.05,1.11,107,3518,Incorrect
4F4K_incongruent,72,382,1,115,16.94,31.37,0.02,0.49,115,1145,Correct
4F4K_incongruent,72,383,2,108,65.75,79.54,0.07,1.25,108,5532,Correct
4F4K_incongruent,72,384,2,97,61.13,44.62,0.07,0.7,97,3540,Correct
4F4K_incongruent,72,385,2,108,42.56,53.99,0.05,0.85,108,1034,Correct
4F4K_incongruent,72,386,2,108,33.65,58.12,0.04,0.91,108,894,Correct
4F4K_incongruent,72,387,1,115,43.49,63.15,0.05,0.99,107,1461,Incorrect
4F4K_incongruent,72,388,1,107,57.53,39.51,0.06,0.62,107,10800,Correct
4F4K_incongruent,72,389,1,107,66.57,45.88,0.07,0.72,107,952,Correct
4F4K_incongruent,72,390,2,108,21.06,36.61,0.02,0.58,108,1192,Correct
4F4K_incongruent,72,391,1,107,78.33,55.51,0.09,0.87,107,3732,Correct
4F4K_incongruent,72,392,2,108,20.61,42.4,0.02,0.67,108,803,Correct
4F4K_incongruent,72,393,1,115,45.14,74.97,0.05,1.18,115,2462,Correct
4F4K_incongruent,72,394,2,108,38.64,63.66,0.04,1.0,108,955,Correct
4F4K_incongruent,72,395,1,115,49.54,57.16,0.06,0.9,107,3343,Incorrect
4F4K_incongruent,72,396,2,97,55.47,28.89,0.06,0.45,97,4692,Correct
4F4K_incongruent,72,397,1,107,68.37,50.39,0.08,0.79,107,1375,Correct
4F4K_incongruent,72,398,1,115,26.63,44.08,0.03,0.69,115,1193,Correct
