condition,subject,trial,sub_task,cat,x,y,xt,yt,resp,rt,fb
4F4K_incongruent,48,0,1,107,47.02,31.74,0.05,0.5,107,14389,Correct
4F4K_incongruent,48,1,2,97,50.78,34.21,0.06,0.54,108,4742,Incorrect
4F4K_incongruent,48,2,2,97,58.23,40.91,0.07,0.64,97,2900,Correct
4F4K_incongruent,48,3,2,108,46.36,55.68,0.05,0.87,97,4944,Incorrect
4F4K_incongruent,48,4,2,108,36.89,61.15,0.04,0.96,108,2505,Correct
4F4K_incongruent,48,5,2,97,52.71,27.02,0.06,0.42,97,1944,Correct
4F4K_incongruent,48,6,1,115,41.92,52.38,0.05,0.82,115,4168,Correct
4F4K_incongruent,48,7,1,107,54.43,27.68,0.06,0.43,107,2850,Correct
4F4K_incongruent,48,8,2,108,63.71,88.72,0.07,1.39,97,3433,Incorrect
4F4K_incongruent,48,9,2,97,66.25,33.29,0.07,0.52,97,999,Correct
4F4K_incongruent,48,10,2,97,62.79,33.95,0.07,0.53,97,1091,Correct
4F4K_incongruent,48,11,1,115,56.86,69.96,0.06,1.1,107,2711,Incorrect
4F4K_incongruent,48,12,1,107,88.59,67.12,0.1,1.05,115,936,Incorrect
4F4K_incongruent,48,13,2,97,42.72,29.95,0.05,0.47,108,3025,Incorrect
4F4K_incongruent,48,14,1,107,38.89,22.18,0.04,0.35,115,6838,Incorrect
4F4K_incongruent,48,15,1,115,59.69,78.89,0.07,1.24,115,1374,Correct
4F4K_incongruent,48,16,2,97,65.2,41.39,0.07,0.65,108,5732,Incorrect
4F4K_incongruent,48,17,2,97,74.85,52.22,0.08,0.82,97,1348,Correct
4F4K_incongruent,48,18,2,108,65.92,79.6,0.07,1.25,97,826,Incorrect
4F4K_incongruent,48,19,2,97,82.32,60.49,0.09,0.95,108,985,Incorrect
4F4K_incongruent,48,20,1,107,57.45,31.02,0.06,0.49,115,1753,Incorrect
4F4K_incongruent,48,21,2,97,72.68,55.49,0.08,0.87,97,4980,Correct
4F4K_incongruent,48,22,1,115,54.03,80.18,0.06,1.26,107,6580,Incorrect
4F4K_incongruent,48,23,1,107,57.38,45.8,0.06,0.72,115,4102,Incorrect
4F4K_incongruent,48,24,2,97,77.66,58.21,0.09,0.91,108,2877,Incorrect
4F4K_incongruent,48,25,2,108,30.79,62.17,0.03,0.98,97,6660,Incorrect
4F4K_incongruent,48,26,1,107,33.17,19.16,0.04,0.3,115,3579,Incorrect
4F4K_incongruent,48,27,2,97,49.03,19.29,0.05,0.3,97,2740,Correct
4F4K_incongruent,48,28,2,97,58.17,32.17,0.07,0.51,97,1619,Correct
4F4K_incongruent,48,29,2,108,53.08,64.34,0.06,1.01,108,929,Correct
4F4K_incongruent,48,30,1,107,46.81,28.71,0.05,0.45,115,4782,Incorrect
4F4K_incongruent,48,31,2,108,14.83,34.67,0.02,0.54,108,1972,Correct
4F4K_incongruent,48,32,2,97,63.68,46.28,0.07,0.73,97,1410,Correct
4F4K_incongruent,48,33,1,115,59.32,80.92,0.07,1.27,115,3248,Correct
4F4K_incongruent,48,34,2,97,38.28,22.43,0.04,0.35,97,2378,Correct
4F4K_incongruent,48,35,1,115,37.6,53.89,0.04,0.85,107,2427,Incorrect
4F4K_incongruent,48,36,1,115,29.1,58.5,0.03,0.92,115,729,Correct
4F4K_incongruent,48,37,1,107,70.07,41.63,0.08,0.65,107,1267,Correct
4F4K_incongruent,48,38,2,108,50.52,72.19,0.06,1.13,108,2024,Correct
4F4K_incongruent,48,39,1,115,57.25,77.79,0.06,1.22,115,1335,Correct
4F4K_incongruent,48,40,1,107,71.7,53.14,0.08,0.83,115,1535,Incorrect
4F4K_incongruent,48,41,2,97,47.06,18.19,0.05,0.29,108,3670,Incorrect
4F4K_incongruent,48,42,2,108,17.79,36.53,0.02,0.57,108,5651,Correct
4F4K_incongruent,48,43,1,107,78.03,59.72,0.09,0.94,115,1942,Incorrect
4F4K_incongruent,48,44,1,115,25.46,36.94,0.03,0.58,115,4252,Correct
4F4K_incongruent,48,45,2,108,14.28,30.95,0.02,0.49,108,1842,Correct
4F4K_incongruent,48,46,1,115,59.27,82.84,0.07,1.3,107,3440,Incorrect
4F4K_incongruent,48,47,2,97,55.41,29.97,0.06,0.47,108,6171,Incorrect
4F4K_incongruent,48,48,2,108,44.55,60.01,0.05,0.94,97,1001,Incorrect
4F4K_incongruent,48,49,2,108,32.45,41.42,0.04,0.65,108,1166,Correct
4F4K_incongruent,48,50,1,107,71.06,60.37,0.08,0.95,107,4543,Correct
4F4K_incongruent,48,51,1,115,22.04,40.04,0.02,0.63,115,1224,Correct
4F4K_incongruent,48,52,1,115,28.83,42.14,0.03,0.66,115,1024,Correct
4F4K_incongruent,48,53,2,97,78.18,65.74,0.09,1.03,97,4950,Correct
4F4K_incongruent,48,54,2,108,53.46,75.62,0.06,1.19,108,3168,Correct
4F4K_incongruent,48,55,1,115,53.57,62.46,0.06,0.98,115,5217,Correct
4F4K_incongruent,48,56,1,107,87.62,69.65,0.1,1.09,115,5249,Incorrect
4F4K_incongruent,48,57,1,107,62.52,33.31,0.07,0.52,115,2006,Incorrect
4F4K_incongruent,48,58,1,115,32.85,49.68,0.04,0.78,115,1582,Correct
4F4K_incongruent,48,59,2,97,87.76,66.35,0.1,1.04,97,3130,Correct
4F4K_incongruent,48,60,2,108,35.05,55.38,0.04,0.87,108,917,Correct
4F4K_incongruent,48,61,2,97,81.58,57.95,0.09,0.91,97,7080,Correct
4F4K_incongruent,48,62,1,107,51.44,40.48,0.06,0.64,107,6996,Correct
4F4K_incongruent,48,63,2,108,45.38,59.59,0.05,0.94,108,2577,Correct
4F4K_incongruent,48,64,1,107,74.06,55.09,0.08,0.87,107,4897,Correct
4F4K_incongruent,48,65,2,108,46.25,59.22,0.05,0.93,108,2336,Correct
4F4K_incongruent,48,66,1,107,44.19,25.26,0.05,0.4,107,1404,Correct
4F4K_incongruent,48,67,2,97,83.06,61.35,0.09,0.96,97,2938,Correct
4F4K_incongruent,48,68,1,107,78.96,64.18,0.09,1.01,107,5488,Correct
4F4K_incongruent,48,69,1,107,31.47,12.91,0.04,0.2,107,8341,Correct
4F4K_incongruent,48,70,2,108,40.25,47.94,0.05,0.75,108,1982,Correct
4F4K_incongruent,48,71,1,115,58.82,71.27,0.07,1.12,115,2725,Correct
4F4K_incongruent,48,72,1,107,57.48,27.92,0.06,0.44,107,3280,Correct
4F4K_incongruent,48,73,2,108,31.13,47.35,0.03,0.74,108,1774,Correct
4F4K_incongruent,48,74,2,97,47.56,24.16,0.05,0.38,108,4641,Incorrect
4F4K_incongruent,48,75,2,108,61.49,79.07,0.07,1.24,108,1087,Correct
4F4K_incongruent,48,76,1,115,61.0,70.87,0.07,1.11,115,1694,Correct
4F4K_incongruent,48,77,1,107,81.09,54.63,0.09,0.86,115,1840,Incorrect
4F4K_incongruent,48,78,2,97,45.62,18.78,0.05,0.29,108,3356,Incorrect
4F4K_incongruent,48,79,2,97,40.7,23.89,0.05,0.38,97,642,Correct
4F4K_incongruent,48,80,1,115,64.72,85.88,0.07,1.35,115,2301,Correct
4F4K_incongruent,48,81,2,108,28.81,50.52,0.03,0.79,108,3286,Correct
4F4K_incongruent,48,82,2,108,50.16,79.74,0.06,1.25,97,1583,Incorrect
4F4K_incongruent,48,83,2,108,51.67,72.62,0.06,1.14,108,1208,Correct
4F4K_incongruent,48,84,1,107,45.86,28.47,0.05,0.45,107,5248,Correct
4F4K_incongruent,48,85,2,108,25.79,47.6,0.03,0.75,108,1318,Correct
4F4K_incongruent,48,86,1,107,82.8,56.63,0.09,0.89,115,1403,Incorrect
4F4K_incongruent,48,87,1,107,54.36,31.11,0.06,0.49,107,1204,Correct
4F4K_incongruent,48,88,2,97,55.04,31.57,0.06,0.5,108,1485,Incorrect
4F4K_incongruent,48,89,2,108,61.26,73.09,0.07,1.15,108,3051,Correct
4F4K_incongruent,48,90,2,97,64.82,42.47,0.07,0.67,97,1023,Correct
4F4K_incongruent,48,91,2,108,18.38,33.96,0.02,0.53,108,1420,Correct
4F4K_incongruent,48,92,2,108,19.58,50.74,0.02,0.8,97,1616,Incorrect
4F4K_incongruent,48,93,1,115,20.9,35.39,0.02,0.56,115,1481,Correct
4F4K_incongruent,48,94,2,97,73.01,55.8,0.08,0.88,97,1757,Correct
4F4K_incongruent,48,95,2,97,46.21,17.03,0.05,0.27,108,1575,Incorrect
4F4K_incongruent,48,96,1,107,82.84,52.89,0.09,0.83,115,2035,Incorrect
4F4K_incongruent,48,97,1,107,83.86,55.36,0.09,0.87,107,2746,Correct
4F4K_incongruent,48,98,2,97,53.37,29.31,0.06,0.46,108,7207,Incorrect
4F4K_incongruent,48,99,1,115,13.83,37.12,0.02,0.58,107,2185,Incorrect
4F4K_incongruent,48,100,2,97,50.02,30.74,0.06,0.48,108,4180,Incorrect
4F4K_incongruent,48,101,1,107,64.71,41.7,0.07,0.66,107,1909,Correct
4F4K_incongruent,48,102,1,107,56.07,38.5,0.06,0.6,107,984,Correct
4F4K_incongruent,48,103,1,107,38.18,27.4,0.04,0.43,107,1292,Correct
4F4K_incongruent,48,104,2,97,33.17,15.33,0.04,0.24,108,3209,Incorrect
4F4K_incongruent,48,105,1,115,30.13,47.0,0.03,0.74,107,4248,Incorrect
4F4K_incongruent,48,106,1,115,39.01,54.94,0.04,0.86,115,1325,Correct
4F4K_incongruent,48,107,2,97,79.05,49.75,0.09,0.78,97,1103,Correct
4F4K_incongruent,48,108,2,97,45.93,30.1,0.05,0.47,108,1560,Incorrect
4F4K_incongruent,48,109,1,115,69.3,84.54,0.08,1.33,115,1209,Correct
4F4K_incongruent,48,110,2,108,39.01,69.82,0.04,1.1,97,1320,Incorrect
4F4K_incongruent,48,111,2,97,74.01,58.59,0.08,0.92,97,1338,Correct
4F4K_incongruent,48,112,2,108,67.97,81.07,0.08,1.27,97,901,Incorrect
4F4K_incongruent,48,113,2,108,10.93,34.43,0.01,0.54,108,1440,Correct
4F4K_incongruent,48,114,1,107,34.63,16.54,0.04,0.26,115,1454,Incorrect
4F4K_incongruent,48,115,1,115,25.16,51.84,0.03,0.81,107,1500,Incorrect
4F4K_incongruent,48,116,2,97,74.95,50.94,0.08,0.8,97,6156,Correct
4F4K_incongruent,48,117,1,107,71.24,46.16,0.08,0.73,107,4400,Correct
4F4K_incongruent,48,118,1,107,71.67,42.44,0.08,0.67,107,989,Correct
4F4K_incongruent,48,119,1,115,41.27,53.29,0.05,0.84,115,4530,Correct
4F4K_incongruent,48,120,1,115,27.81,57.04,0.03,0.9,115,752,Correct
4F4K_incongruent,48,121,1,107,83.48,57.93,0.09,0.91,107,4063,Correct
4F4K_incongruent,48,122,1,107,65.84,44.15,0.07,0.69,107,1106,Correct
4F4K_incongruent,48,123,1,107,74.68,55.02,0.08,0.86,107,1077,Correct
4F4K_incongruent,48,124,1,115,69.27,83.75,0.08,1.32,115,1750,Correct
4F4K_incongruent,48,125,2,97,34.07,21.6,0.04,0.34,108,1732,Incorrect
4F4K_incongruent,48,126,2,108,58.28,73.58,0.07,1.16,108,2043,Correct
4F4K_incongruent,48,127,1,107,76.42,64.27,0.09,1.01,115,1759,Incorrect
4F4K_incongruent,48,128,2,97,41.3,23.24,0.05,0.37,97,1526,Correct
4F4K_incongruent,48,129,1,115,63.78,88.15,0.07,1.38,115,2406,Correct
4F4K_incongruent,48,130,1,107,58.57,44.02,0.07,0.69,115,1506,Incorrect
4F4K_incongruent,48,131,2,108,50.56,75.73,0.06,1.19,97,1562,Incorrect
4F4K_incongruent,48,132,2,97,37.29,13.46,0.04,0.21,97,1386,Correct
4F4K_incongruent,48,133,2,108,42.05,51.49,0.05,0.81,97,615,Incorrect
4F4K_incongruent,48,134,1,115,59.65,86.66,0.07,1.36,107,2366,Incorrect
4F4K_incongruent,48,135,1,115,44.2,63.36,0.05,1.0,115,1539,Correct
4F4K_incongruent,48,136,1,115,34.49,53.24,0.04,0.84,115,1601,Correct
4F4K_incongruent,48,137,2,97,79.51,64.64,0.09,1.02,108,1456,Incorrect
4F4K_incongruent,48,138,2,108,13.59,37.51,0.02,0.59,108,1236,Correct
4F4K_incongruent,48,139,2,108,60.74,79.32,0.07,1.25,97,1161,Incorrect
4F4K_incongruent,48,140,2,108,55.83,70.69,0.06,1.11,108,1761,Correct
4F4K_incongruent,48,141,1,115,42.82,64.8,0.05,1.02,115,2590,Correct
4F4K_incongruent,48,142,2,108,68.29,84.15,0.08,1.32,108,5687,Correct
4F4K_incongruent,48,143,2,108,24.9,48.19,0.03,0.76,108,3234,Correct
4F4K_incongruent,48,144,1,107,51.5,31.84,0.06,0.5,107,2839,Correct
4F4K_incongruent,48,145,1,107,40.79,22.45,0.05,0.35,107,6065,Correct
4F4K_incongruent,48,146,1,115,44.35,68.16,0.05,1.07,115,1647,Correct
4F4K_incongruent,48,147,2,97,60.37,50.95,0.07,0.8,108,7641,Incorrect
4F4K_incongruent,48,148,2,97,64.32,46.97,0.07,0.74,97,1862,Correct
4F4K_incongruent,48,149,2,108,36.51,66.78,0.04,1.05,108,1419,Correct
4F4K_incongruent,48,150,1,115,36.17,46.04,0.04,0.72,107,4945,Incorrect
4F4K_incongruent,48,151,2,108,49.9,71.86,0.06,1.13,108,9209,Correct
4F4K_incongruent,48,152,2,97,57.56,47.34,0.06,0.74,108,880,Incorrect
4F4K_incongruent,48,153,2,97,66.68,48.41,0.07,0.76,108,2808,Incorrect
4F4K_incongruent,48,154,1,115,42.66,74.23,0.05,1.17,107,5933,Incorrect
4F4K_incongruent,48,155,1,115,19.21,33.34,0.02,0.52,107,1515,Incorrect
4F4K_incongruent,48,156,1,115,35.19,43.07,0.04,0.68,107,3106,Incorrect
4F4K_incongruent,48,157,2,97,77.36,60.57,0.09,0.95,97,1378,Correct
4F4K_incongruent,48,158,2,108,20.47,42.96,0.02,0.67,108,1341,Correct
4F4K_incongruent,48,159,2,97,84.78,57.74,0.09,0.91,97,4651,Correct
4F4K_incongruent,48,160,2,97,63.83,34.9,0.07,0.55,108,2066,Incorrect
4F4K_incongruent,48,161,2,97,33.59,19.68,0.04,0.31,108,1188,Incorrect
4F4K_incongruent,48,162,2,97,43.88,18.49,0.05,0.29,108,3058,Incorrect
4F4K_incongruent,48,163,2,97,51.44,44.49,0.06,0.7,97,1177,Correct
4F4K_incongruent,48,164,1,115,65.85,79.98,0.07,1.26,115,3710,Correct
4F4K_incongruent,48,165,2,108,24.69,56.22,0.03,0.88,108,1800,Correct
4F4K_incongruent,48,166,1,115,46.56,77.17,0.05,1.21,107,4924,Incorrect
4F4K_incongruent,48,167,2,108,33.02,54.57,0.04,0.86,108,3815,Correct
4F4K_incongruent,48,168,2,108,22.37,36.75,0.03,0.58,108,2852,Correct
4F4K_incongruent,48,169,1,115,43.33,62.09,0.05,0.98,115,5464,Correct
4F4K_incongruent,48,170,2,97,61.02,39.29,0.07,0.62,97,2110,Correct
4F4K_incongruent,48,171,1,115,49.97,74.12,0.06,1.16,115,1672,Correct
4F4K_incongruent,48,172,1,107,84.53,69.38,0.09,1.09,115,2027,Incorrect
4F4K_incongruent,48,173,2,97,37.17,16.11,0.04,0.25,108,3141,Incorrect
4F4K_incongruent,48,174,2,108,41.34,73.0,0.05,1.15,97,3274,Incorrect
4F4K_incongruent,48,175,1,115,24.9,47.97,0.03,0.75,107,2787,Incorrect
4F4K_incongruent,48,176,2,108,54.14,68.08,0.06,1.07,108,18138,Correct
4F4K_incongruent,48,177,1,115,22.59,43.7,0.03,0.69,107,4803,Incorrect
4F4K_incongruent,48,178,2,97,32.15,10.32,0.04,0.16,108,10105,Incorrect
4F4K_incongruent,48,179,1,107,65.93,47.89,0.07,0.75,115,11927,Incorrect
4F4K_incongruent,48,180,2,97,64.0,43.58,0.07,0.68,97,3753,Correct
4F4K_incongruent,48,181,1,107,57.3,34.47,0.06,0.54,115,8631,Incorrect
4F4K_incongruent,48,182,2,97,46.6,37.07,0.05,0.58,97,3761,Correct
4F4K_incongruent,48,183,1,115,42.0,71.38,0.05,1.12,107,3770,Incorrect
4F4K_incongruent,48,184,2,97,84.33,58.83,0.09,0.92,108,12126,Incorrect
4F4K_incongruent,48,185,2,97,60.23,46.81,0.07,0.74,97,1292,Correct
4F4K_incongruent,48,186,1,115,45.23,76.92,0.05,1.21,115,2630,Correct
4F4K_incongruent,48,187,1,107,46.42,18.51,0.05,0.29,115,1718,Incorrect
4F4K_incongruent,48,188,2,97,42.16,30.33,0.05,0.48,97,9188,Correct
4F4K_incongruent,48,189,2,108,30.25,44.91,0.03,0.71,108,2317,Correct
4F4K_incongruent,48,190,1,107,67.01,42.33,0.07,0.66,115,2839,Incorrect
4F4K_incongruent,48,191,2,108,42.27,67.92,0.05,1.07,108,1772,Correct
4F4K_incongruent,48,192,2,108,43.68,65.38,0.05,1.03,108,962,Correct
4F4K_incongruent,48,193,1,115,32.41,43.36,0.04,0.68,107,2369,Incorrect
4F4K_incongruent,48,194,1,115,43.77,72.01,0.05,1.13,115,1135,Correct
4F4K_incongruent,48,195,2,97,60.7,37.61,0.07,0.59,97,2135,Correct
4F4K_incongruent,48,196,1,107,85.07,57.83,0.1,0.91,115,6033,Incorrect
4F4K_incongruent,48,197,2,97,80.36,59.95,0.09,0.94,97,1792,Correct
4F4K_incongruent,48,198,2,97,84.32,63.82,0.09,1.0,97,976,Correct
4F4K_incongruent,48,199,1,115,18.98,43.72,0.02,0.69,107,3577,Incorrect
4F4K_incongruent,48,200,2,97,58.41,39.97,0.07,0.63,97,1384,Correct
4F4K_incongruent,48,201,2,108,49.78,62.16,0.06,0.98,97,3190,Incorrect
4F4K_incongruent,48,202,2,97,56.38,23.84,0.06,0.37,97,3489,Correct
4F4K_incongruent,48,203,1,115,51.7,71.32,0.06,1.12,115,1715,Correct
4F4K_incongruent,48,204,1,107,77.36,47.11,0.09,0.74,115,3377,Incorrect
4F4K_incongruent,48,205,2,97,73.77,52.16,0.08,0.82,97,1417,Correct
4F4K_incongruent,48,206,1,107,34.06,10.4,0.04,0.16,107,5095,Correct
4F4K_incongruent,48,207,1,115,48.53,69.13,0.05,1.09,115,2037,Correct
4F4K_incongruent,48,208,1,115,62.76,86.66,0.07,1.36,107,850,Incorrect
4F4K_incongruent,48,209,2,97,37.46,28.06,0.04,0.44,108,2765,Incorrect
4F4K_incongruent,48,210,1,115,18.34,31.48,0.02,0.49,107,2982,Incorrect
4F4K_incongruent,48,211,1,107,40.93,30.92,0.05,0.49,115,2171,Incorrect
4F4K_incongruent,48,212,1,115,13.0,33.87,0.01,0.53,115,1145,Correct
4F4K_incongruent,48,213,1,115,39.5,50.43,0.04,0.79,107,962,Incorrect
4F4K_incongruent,48,214,2,97,39.8,27.32,0.04,0.43,108,3616,Incorrect
4F4K_incongruent,48,215,2,108,11.89,38.95,0.01,0.61,108,2369,Correct
4F4K_incongruent,48,216,1,115,51.75,68.72,0.06,1.08,107,2024,Incorrect
4F4K_incongruent,48,217,1,115,26.42,45.88,0.03,0.72,115,10411,Correct
4F4K_incongruent,48,218,2,108,52.01,77.91,0.06,1.22,97,2090,Incorrect
4F4K_incongruent,48,219,2,108,53.86,76.52,0.06,1.2,108,1490,Correct
4F4K_incongruent,48,220,1,115,28.86,48.26,0.03,0.76,115,2454,Correct
4F4K_incongruent,48,221,1,115,53.61,64.25,0.06,1.01,107,1888,Incorrect
4F4K_incongruent,48,222,1,115,59.18,84.29,0.07,1.32,115,2726,Correct
4F4K_incongruent,48,223,1,115,26.4,45.21,0.03,0.71,107,2517,Incorrect
4F4K_incongruent,48,224,1,115,45.33,71.18,0.05,1.12,107,7064,Incorrect
4F4K_incongruent,48,225,2,108,18.3,31.53,0.02,0.5,108,2325,Correct
4F4K_incongruent,48,226,2,97,59.39,37.53,0.07,0.59,97,1627,Correct
4F4K_incongruent,48,227,2,97,62.01,40.29,0.07,0.63,97,962,Correct
4F4K_incongruent,48,228,1,115,59.33,69.15,0.07,1.09,115,1212,Correct
4F4K_incongruent,48,229,1,107,53.11,26.84,0.06,0.42,115,1157,Incorrect
4F4K_incongruent,48,230,1,107,48.95,21.43,0.05,0.34,107,1183,Correct
4F4K_incongruent,48,231,1,115,38.94,70.29,0.04,1.1,115,1478,Correct
4F4K_incongruent,48,232,1,107,64.64,51.77,0.07,0.81,115,4219,Incorrect
4F4K_incongruent,48,233,1,115,65.24,85.55,0.07,1.34,115,1906,Correct
4F4K_incongruent,48,234,2,108,26.28,46.31,0.03,0.73,108,3629,Correct
4F4K_incongruent,48,235,2,97,54.86,30.87,0.06,0.48,108,1248,Incorrect
4F4K_incongruent,48,236,2,108,54.06,81.51,0.06,1.28,97,3377,Incorrect
4F4K_incongruent,48,237,1,107,83.93,67.92,0.09,1.07,115,941,Incorrect
4F4K_incongruent,48,238,2,108,59.78,87.31,0.07,1.37,108,937,Correct
4F4K_incongruent,48,239,1,115,51.57,72.39,0.06,1.14,115,4371,Correct
4F4K_incongruent,48,240,1,107,37.99,15.66,0.04,0.25,107,1639,Correct
4F4K_incongruent,48,241,1,115,25.75,55.1,0.03,0.87,107,1178,Incorrect
4F4K_incongruent,48,242,1,115,44.17,71.83,0.05,1.13,115,3057,Correct
4F4K_incongruent,48,243,1,115,24.88,40.69,0.03,0.64,107,1361,Incorrect
4F4K_incongruent,48,244,1,107,89.44,68.0,0.1,1.07,115,2256,Incorrect
4F4K_incongruent,48,245,1,115,56.03,68.2,0.06,1.07,107,1214,Incorrect
4F4K_incongruent,48,246,1,107,41.72,13.49,0.05,0.21,107,2968,Correct
4F4K_incongruent,48,247,1,115,60.65,70.58,0.07,1.11,115,1342,Correct
4F4K_incongruent,48,248,1,107,54.41,29.61,0.06,0.47,115,1651,Incorrect
4F4K_incongruent,48,249,2,97,54.59,31.83,0.06,0.5,108,2869,Incorrect
4F4K_incongruent,48,250,2,97,75.05,49.5,0.08,0.78,97,1006,Correct
4F4K_incongruent,48,251,2,108,45.64,74.55,0.05,1.17,108,1424,Correct
4F4K_incongruent,48,252,1,115,22.7,55.09,0.03,0.87,107,2876,Incorrect
4F4K_incongruent,48,253,1,115,14.72,30.46,0.02,0.48,115,1103,Correct
4F4K_incongruent,48,254,2,97,69.51,54.03,0.08,0.85,97,3543,Correct
4F4K_incongruent,48,255,1,115,42.16,73.21,0.05,1.15,115,1749,Correct
4F4K_incongruent,48,256,2,108,52.98,79.6,0.06,1.25,97,705,Incorrect
4F4K_incongruent,48,257,2,97,85.8,64.17,0.1,1.01,97,2385,Correct
4F4K_incongruent,48,258,1,107,69.22,55.47,0.08,0.87,115,2108,Incorrect
4F4K_incongruent,48,259,1,115,67.13,80.43,0.08,1.26,115,6979,Correct
4F4K_incongruent,48,260,2,97,39.71,21.49,0.04,0.34,108,2820,Incorrect
4F4K_incongruent,48,261,2,97,78.13,63.92,0.09,1.0,108,2681,Incorrect
4F4K_incongruent,48,262,1,115,46.26,67.21,0.05,1.06,115,1793,Correct
4F4K_incongruent,48,263,2,97,54.2,25.11,0.06,0.39,108,2217,Incorrect
4F4K_incongruent,48,264,2,108,33.06,49.04,0.04,0.77,108,4689,Correct
4F4K_incongruent,48,265,2,108,34.82,52.5,0.04,0.82,108,6571,Correct
4F4K_incongruent,48,266,1,115,33.8,50.95,0.04,0.8,107,1659,Incorrect
4F4K_incongruent,48,267,1,115,39.15,48.08,0.04,0.76,115,1195,Correct
4F4K_incongruent,48,268,2,97,53.48,42.98,0.06,0.68,97,2274,Correct
4F4K_incongruent,48,269,1,115,26.28,37.6,0.03,0.59,115,935,Correct
4F4K_incongruent,48,270,2,108,37.65,67.24,0.04,1.06,108,1538,Correct
4F4K_incongruent,48,271,1,107,75.82,45.64,0.08,0.72,107,1129,Correct
4F4K_incongruent,48,272,1,115,20.89,33.12,0.02,0.52,115,930,Correct
4F4K_incongruent,48,273,1,115,38.85,55.66,0.04,0.87,115,1500,Correct
4F4K_incongruent,48,274,1,107,45.86,21.3,0.05,0.33,115,1140,Incorrect
4F4K_incongruent,48,275,2,97,49.87,33.67,0.06,0.53,108,1187,Incorrect
4F4K_incongruent,48,276,1,115,12.34,38.01,0.01,0.6,115,1222,Correct
4F4K_incongruent,48,277,1,107,63.57,39.14,0.07,0.61,107,1082,Correct
4F4K_incongruent,48,278,2,108,45.83,77.2,0.05,1.21,108,978,Correct
4F4K_incongruent,48,279,1,115,25.94,39.75,0.03,0.62,115,795,Correct
4F4K_incongruent,48,280,2,108,62.32,76.79,0.07,1.21,97,3126,Incorrect
4F4K_incongruent,48,281,1,107,38.51,18.12,0.04,0.28,115,2338,Incorrect
4F4K_incongruent,48,282,1,107,87.41,61.95,0.1,0.97,107,1344,Correct
4F4K_incongruent,48,283,1,115,52.41,79.2,0.06,1.24,115,2186,Correct
4F4K_incongruent,48,284,2,108,46.61,57.15,0.05,0.9,108,975,Correct
4F4K_incongruent,48,285,1,115,47.14,63.68,0.05,1.0,115,1157,Correct
4F4K_incongruent,48,286,1,115,39.48,55.24,0.04,0.87,115,902,Correct
4F4K_incongruent,48,287,1,107,72.81,43.93,0.08,0.69,107,1164,Correct
4F4K_incongruent,48,288,2,97,60.01,48.22,0.07,0.76,108,4240,Incorrect
4F4K_incongruent,48,289,1,115,42.01,73.99,0.05,1.16,115,805,Correct
4F4K_incongruent,48,290,2,97,55.16,47.89,0.06,0.75,108,2270,Incorrect
4F4K_incongruent,48,291,1,107,82.98,68.52,0.09,1.08,115,9408,Incorrect
4F4K_incongruent,48,292,1,107,50.43,30.01,0.06,0.47,115,858,Incorrect
4F4K_incongruent,48,293,2,108,17.35,34.58,0.02,0.54,108,1087,Correct
4F4K_incongruent,48,294,2,108,52.03,65.21,0.06,1.02,97,989,Incorrect
4F4K_incongruent,48,295,1,115,65.61,85.18,0.07,1.34,107,1979,Incorrect
4F4K_incongruent,48,296,2,108,52.78,76.18,0.06,1.2,108,1337,Correct
4F4K_incongruent,48,297,1,115,39.06,54.12,0.04,0.85,115,1388,Correct
4F4K_incongruent,48,298,2,108,33.77,51.99,0.04,0.82,108,1321,Correct
4F4K_incongruent,48,299,2,108,17.9,42.28,0.02,0.66,108,1014,Correct
4F4K_incongruent,48,300,1,115,36.02,60.03,0.04,0.94,115,1257,Correct
4F4K_incongruent,48,301,1,107,55.71,46.6,0.06,0.73,107,988,Correct
4F4K_incongruent,48,302,2,108,29.43,44.82,0.03,0.7,108,821,Correct
4F4K_incongruent,48,303,2,97,48.11,22.01,0.05,0.35,97,1140,Correct
4F4K_incongruent,48,304,2,97,53.16,36.91,0.06,0.58,97,2200,Correct
4F4K_incongruent,48,305,2,97,38.18,18.06,0.04,0.28,108,2901,Incorrect
4F4K_incongruent,48,306,2,108,53.7,68.61,0.06,1.08,97,2281,Incorrect
4F4K_incongruent,48,307,1,115,25.04,52.63,0.03,0.83,115,1069,Correct
4F4K_incongruent,48,308,1,107,69.41,38.53,0.08,0.61,107,1876,Correct
4F4K_incongruent,48,309,1,115,50.61,75.87,0.06,1.19,115,2832,Correct
4F4K_incongruent,48,310,2,97,50.72,35.8,0.06,0.56,97,1299,Correct
4F4K_incongruent,48,311,2,108,24.29,38.31,0.03,0.6,108,877,Correct
4F4K_incongruent,48,312,2,108,30.45,48.27,0.03,0.76,108,808,Correct
4F4K_incongruent,48,313,1,107,80.13,67.2,0.09,1.06,107,3790,Correct
4F4K_incongruent,48,314,1,107,69.52,57.54,0.08,0.9,107,788,Correct
4F4K_incongruent,48,315,2,97,79.07,66.8,0.09,1.05,97,2967,Correct
4F4K_incongruent,48,316,2,108,47.88,76.33,0.05,1.2,108,2861,Correct
4F4K_incongruent,48,317,1,107,68.96,36.73,0.08,0.58,107,2551,Correct
4F4K_incongruent,48,318,2,97,78.98,62.85,0.09,0.99,97,1587,Correct
4F4K_incongruent,48,319,1,115,43.43,56.82,0.05,0.89,115,2701,Correct
4F4K_incongruent,48,320,1,107,86.66,65.67,0.1,1.03,107,1641,Correct
4F4K_incongruent,48,321,2,97,62.49,36.61,0.07,0.58,108,2239,Incorrect
4F4K_incongruent,48,322,2,97,68.75,47.25,0.08,0.74,97,880,Correct
4F4K_incongruent,48,323,1,107,72.88,54.37,0.08,0.85,107,997,Correct
4F4K_incongruent,48,324,1,107,54.91,46.96,0.06,0.74,115,2435,Incorrect
4F4K_incongruent,48,325,2,97,68.46,47.32,0.08,0.74,97,1044,Correct
4F4K_incongruent,48,326,1,107,55.65,42.37,0.06,0.67,107,3587,Correct
4F4K_incongruent,48,327,1,115,22.96,46.97,0.03,0.74,115,1267,Correct
4F4K_incongruent,48,328,1,107,66.07,52.13,0.07,0.82,107,1424,Correct
4F4K_incongruent,48,329,1,107,84.26,56.82,0.09,0.89,107,1273,Correct
4F4K_incongruent,48,330,2,97,64.52,31.81,0.07,0.5,97,2059,Correct
4F4K_incongruent,48,331,2,108,45.02,55.75,0.05,0.88,108,1019,Correct
4F4K_incongruent,48,332,2,108,21.66,45.53,0.02,0.72,108,1529,Correct
4F4K_incongruent,48,333,1,107,39.29,12.21,0.04,0.19,115,1039,Incorrect
4F4K_incongruent,48,334,2,108,32.56,49.98,0.04,0.79,108,1095,Correct
4F4K_incongruent,48,335,2,97,41.33,26.7,0.05,0.42,108,4758,Incorrect
4F4K_incongruent,48,336,2,97,38.04,20.39,0.04,0.32,108,4040,Incorrect
4F4K_incongruent,48,337,1,107,74.36,51.59,0.08,0.81,107,3442,Correct
4F4K_incongruent,48,338,1,107,83.18,62.68,0.09,0.98,107,838,Correct
4F4K_incongruent,48,339,1,115,35.66,46.87,0.04,0.74,115,973,Correct
4F4K_incongruent,48,340,1,115,52.71,70.42,0.06,1.11,107,1293,Incorrect
4F4K_incongruent,48,341,1,107,89.98,67.34,0.1,1.06,107,2188,Correct
4F4K_incongruent,48,342,1,115,48.78,69.18,0.05,1.09,115,2862,Correct
4F4K_incongruent,48,343,1,115,12.62,40.14,0.01,0.63,115,2331,Correct
4F4K_incongruent,48,344,1,107,49.68,34.04,0.06,0.53,107,3817,Correct
4F4K_incongruent,48,345,2,97,68.16,44.36,0.08,0.7,97,876,Correct
4F4K_incongruent,48,346,2,97,61.94,43.85,0.07,0.69,97,1854,Correct
4F4K_incongruent,48,347,1,115,27.54,42.01,0.03,0.66,115,1476,Correct
4F4K_incongruent,48,348,1,107,37.79,23.65,0.04,0.37,115,1169,Incorrect
4F4K_incongruent,48,349,2,97,33.58,17.9,0.04,0.28,108,1033,Incorrect
4F4K_incongruent,48,350,1,115,40.11,68.2,0.04,1.07,115,5135,Correct
4F4K_incongruent,48,351,2,108,60.79,77.49,0.07,1.22,97,914,Incorrect
4F4K_incongruent,48,352,1,107,74.93,56.42,0.08,0.89,107,1808,Correct
4F4K_incongruent,48,353,2,97,69.95,56.82,0.08,0.89,97,2997,Correct
4F4K_incongruent,48,354,2,97,79.8,65.47,0.09,1.03,97,1528,Correct
4F4K_incongruent,48,355,2,97,74.58,52.24,0.08,0.82,97,2009,Correct
4F4K_incongruent,48,356,1,107,49.21,30.69,0.06,0.48,115,2272,Incorrect
4F4K_incongruent,48,357,2,97,56.84,44.49,0.06,0.7,97,1492,Correct
4F4K_incongruent,48,358,1,115,38.65,64.77,0.04,1.02,115,2014,Correct
4F4K_incongruent,48,359,1,115,47.04,78.83,0.05,1.24,115,2702,Correct
4F4K_incongruent,48,360,2,108,16.7,37.85,0.02,0.59,108,803,Correct
4F4K_incongruent,48,361,2,108,32.42,44.27,0.04,0.7,108,965,Correct
4F4K_incongruent,48,362,2,108,19.26,37.53,0.02,0.59,108,806,Correct
4F4K_incongruent,48,363,2,97,57.87,48.67,0.06,0.76,97,802,Correct
4F4K_incongruent,48,364,2,108,25.96,55.36,0.03,0.87,108,766,Correct
4F4K_incongruent,48,365,1,115,25.82,43.43,0.03,0.68,115,4728,Correct
4F4K_incongruent,48,366,2,108,40.23,64.37,0.05,1.01,108,1617,Correct
4F4K_incongruent,48,367,2,108,40.43,54.06,0.05,0.85,108,2227,Correct
4F4K_incongruent,48,368,1,107,60.65,37.27,0.07,0.59,107,1411,Correct
4F4K_incongruent,48,369,1,115,45.13,75.67,0.05,1.19,115,2051,Correct
4F4K_incongruent,48,370,2,97,57.09,50.11,0.06,0.79,97,2154,Correct
4F4K_incongruent,48,371,2,108,56.57,84.4,0.06,1.33,97,1317,Incorrect
4F4K_incongruent,48,372,2,97,59.67,30.27,0.07,0.48,108,3190,Incorrect
4F4K_incongruent,48,373,1,115,41.54,54.01,0.05,0.85,115,3611,Correct
4F4K_incongruent,48,374,1,107,72.27,47.72,0.08,0.75,107,2845,Correct
4F4K_incongruent,48,375,1,115,32.44,51.4,0.04,0.81,115,1532,Correct
4F4K_incongruent,48,376,1,107,68.14,40.31,0.08,0.63,107,1066,Correct
4F4K_incongruent,48,377,1,107,89.35,65.29,0.1,1.03,107,748,Correct
4F4K_incongruent,48,378,2,97,52.36,28.76,0.06,0.45,108,865,Incorrect
4F4K_incongruent,48,379,2,97,37.1,12.25,0.04,0.19,108,2081,Incorrect
4F4K_incongruent,48,380,1,115,27.54,54.13,0.03,0.85,115,1285,Correct
4F4K_incongruent,48,381,1,107,45.03,32.66,0.05,0.51,115,5520,Incorrect
4F4K_incongruent,48,382,2,108,47.54,54.94,0.05,0.86,108,2683,Correct
4F4K_incongruent,48,383,2,97,49.6,21.77,0.06,0.34,108,2395,Incorrect
4F4K_incongruent,48,384,2,108,51.33,67.98,0.06,1.07,97,4070,Incorrect
4F4K_incongruent,48,385,1,107,65.39,42.24,0.07,0.66,107,1463,Correct
4F4K_incongruent,48,386,1,107,32.07,13.61,0.04,0.21,115,1435,Incorrect
4F4K_incongruent,48,387,2,108,53.1,73.67,0.06,1.16,108,5736,Correct
4F4K_incongruent,48,388,1,107,48.63,24.54,0.05,0.39,107,1326,Correct
4F4K_incongruent,48,389,2,97,64.26,55.81,0.07,0.88,97,3173,Correct
4F4K_incongruent,48,390,2,97,57.7,39.58,0.06,0.62,97,1558,Correct
4F4K_incongruent,48,391,2,108,54.14,83.58,0.06,1.31,108,1828,Correct
4F4K_incongruent,48,392,1,115,33.24,59.68,0.04,0.94,115,887,Correct
4F4K_incongruent,48,393,2,97,86.61,60.07,0.1,0.94,97,4346,Correct
4F4K_incongruent,48,394,1,115,43.68,70.43,0.05,1.11,115,2409,Correct
4F4K_incongruent,48,395,1,115,38.63,64.01,0.04,1.01,115,1391,Correct
4F4K_incongruent,48,396,1,115,20.53,43.21,0.02,0.68,115,821,Correct
4F4K_incongruent,48,397,1,115,26.35,48.02,0.03,0.75,115,654,Correct
4F4K_incongruent,48,398,2,97,70.24,37.71,0.08,0.59,97,2846,Correct
