condition,subject,trial,sub_task,cat,x,y,xt,yt,resp,rt,fb
4F4K_incongruent,76,0,2,108,61.88,76.66,0.07,1.2,108,5838,Correct
4F4K_incongruent,76,1,1,115,18.49,46.09,0.02,0.72,115,5288,Correct
4F4K_incongruent,76,2,1,115,16.08,38.32,0.02,0.6,115,3231,Correct
4F4K_incongruent,76,3,2,108,47.72,72.05,0.05,1.13,97,2499,Incorrect
4F4K_incongruent,76,4,1,115,29.21,58.22,0.03,0.91,115,2527,Correct
4F4K_incongruent,76,5,2,108,59.96,75.22,0.07,1.18,108,2231,Correct
4F4K_incongruent,76,6,2,108,48.25,77.83,0.05,1.22,108,3024,Correct
4F4K_incongruent,76,7,1,115,30.51,45.98,0.03,0.72,115,3269,Correct
4F4K_incongruent,76,8,1,107,76.41,53.27,0.09,0.84,107,3119,Correct
4F4K_incongruent,76,9,1,115,69.38,86.2,0.08,1.35,107,1744,Incorrect
4F4K_incongruent,76,10,2,97,61.44,37.69,0.07,0.59,108,3950,Incorrect
4F4K_incongruent,76,11,1,107,87.61,65.99,0.1,1.04,107,3235,Correct
4F4K_incongruent,76,12,2,108,33.67,47.73,0.04,0.75,97,6828,Incorrect
4F4K_incongruent,76,13,1,107,40.21,25.77,0.04,0.4,115,7475,Incorrect
4F4K_incongruent,76,14,1,107,64.51,35.99,0.07,0.57,115,8967,Incorrect
4F4K_incongruent,76,15,1,107,50.19,28.42,0.06,0.45,107,6562,Correct
4F4K_incongruent,76,16,1,115,33.96,59.79,0.04,0.94,115,3437,Correct
4F4K_incongruent,76,17,2,97,75.52,61.46,0.08,0.97,108,8755,Incorrect
4F4K_incongruent,76,18,2,108,36.95,61.32,0.04,0.96,108,7349,Correct
4F4K_incongruent,76,19,1,107,77.64,58.6,0.09,0.92,115,8274,Incorrect
4F4K_incongruent,76,20,2,108,28.12,49.22,0.03,0.77,108,15386,Correct
4F4K_incongruent,76,21,1,115,50.42,78.84,0.06,1.24,107,19501,Incorrect
4F4K_incongruent,76,22,2,108,31.93,55.16,0.04,0.87,108,4386,Correct
4F4K_incongruent,76,23,2,108,48.22,69.64,0.05,1.09,108,4716,Correct
4F4K_incongruent,76,24,2,108,50.75,81.14,0.06,1.27,108,1374,Correct
4F4K_incongruent,76,25,2,97,72.5,49.77,0.08,0.78,108,2811,Incorrect
4F4K_incongruent,76,26,1,115,28.33,44.23,0.03,0.69,115,6053,Correct
4F4K_incongruent,76,27,1,107,64.95,41.58,0.07,0.65,107,5801,Correct
4F4K_incongruent,76,28,1,107,44.49,19.74,0.05,0.31,115,2292,Incorrect
4F4K_incongruent,76,29,1,115,41.55,65.62,0.05,1.03,115,5966,Correct
4F4K_incongruent,76,30,1,107,47.64,35.8,0.05,0.56,115,578,Incorrect
4F4K_incongruent,76,31,2,97,66.53,56.32,0.07,0.88,97,4426,Correct
4F4K_incongruent,76,32,2,97,39.95,14.6,0.04,0.23,97,9195,Correct
4F4K_incongruent,76,33,2,97,52.06,28.62,0.06,0.45,97,7440,Correct
4F4K_incongruent,76,34,2,108,25.03,56.14,0.03,0.88,108,2268,Correct
4F4K_incongruent,76,35,2,97,53.46,22.7,0.06,0.36,97,7686,Correct
4F4K_incongruent,76,36,2,97,47.11,17.27,0.05,0.27,97,4470,Correct
4F4K_incongruent,76,37,1,115,14.27,40.62,0.02,0.64,115,14181,Correct
4F4K_incongruent,76,38,1,107,57.0,38.37,0.06,0.6,107,2151,Correct
4F4K_incongruent,76,39,2,108,38.62,70.66,0.04,1.11,97,6184,Incorrect
4F4K_incongruent,76,40,1,115,17.21,33.07,0.02,0.52,115,2619,Correct
4F4K_incongruent,76,41,2,97,44.98,15.49,0.05,0.24,97,6480,Correct
4F4K_incongruent,76,42,1,115,42.84,51.83,0.05,0.81,107,13628,Incorrect
4F4K_incongruent,76,43,2,108,35.5,49.7,0.04,0.78,108,6068,Correct
4F4K_incongruent,76,44,1,107,43.08,25.27,0.05,0.4,115,9597,Incorrect
4F4K_incongruent,76,45,1,107,72.6,45.01,0.08,0.71,107,12287,Correct
4F4K_incongruent,76,46,1,115,43.35,55.58,0.05,0.87,107,5553,Incorrect
4F4K_incongruent,76,47,1,115,35.69,45.93,0.04,0.72,115,5159,Correct
4F4K_incongruent,76,48,2,108,42.21,53.1,0.05,0.83,108,3653,Correct
4F4K_incongruent,76,49,2,97,60.13,52.86,0.07,0.83,97,2244,Correct
4F4K_incongruent,76,50,1,107,38.16,14.02,0.04,0.22,115,14121,Incorrect
4F4K_incongruent,76,51,1,107,70.67,40.81,0.08,0.64,115,3499,Incorrect
4F4K_incongruent,76,52,1,115,47.34,59.89,0.05,0.94,115,2836,Correct
4F4K_incongruent,76,53,1,115,27.96,52.89,0.03,0.83,115,1849,Correct
4F4K_incongruent,76,54,1,115,27.91,55.04,0.03,0.86,115,1504,Correct
4F4K_incongruent,76,55,1,115,60.92,72.42,0.07,1.14,115,1148,Correct
4F4K_incongruent,76,56,1,107,55.98,26.68,0.06,0.42,107,2237,Correct
4F4K_incongruent,76,57,1,107,66.91,38.94,0.07,0.61,115,2724,Incorrect
4F4K_incongruent,76,58,1,115,63.65,77.23,0.07,1.21,115,2653,Correct
4F4K_incongruent,76,59,2,97,49.87,36.32,0.06,0.57,97,10624,Correct
4F4K_incongruent,76,60,2,97,77.66,59.58,0.09,0.94,108,4384,Incorrect
4F4K_incongruent,76,61,1,115,44.46,56.08,0.05,0.88,115,4049,Correct
4F4K_incongruent,76,62,1,107,65.3,47.08,0.07,0.74,115,6525,Incorrect
4F4K_incongruent,76,63,1,107,70.99,47.26,0.08,0.74,107,948,Correct
4F4K_incongruent,76,64,1,115,42.73,73.96,0.05,1.16,115,2041,Correct
4F4K_incongruent,76,65,1,107,53.28,22.69,0.06,0.36,107,6352,Correct
4F4K_incongruent,76,66,2,97,40.54,12.72,0.05,0.2,97,2923,Correct
4F4K_incongruent,76,67,2,108,22.95,42.29,0.03,0.66,97,2921,Incorrect
4F4K_incongruent,76,68,1,115,21.01,48.4,0.02,0.76,115,10792,Correct
4F4K_incongruent,76,69,1,107,36.24,14.48,0.04,0.23,107,2262,Correct
4F4K_incongruent,76,70,1,107,56.78,31.95,0.06,0.5,107,4537,Correct
4F4K_incongruent,76,71,2,108,50.95,69.7,0.06,1.09,108,3387,Correct
4F4K_incongruent,76,72,1,107,53.49,31.14,0.06,0.49,107,6704,Correct
4F4K_incongruent,76,73,1,107,62.7,40.37,0.07,0.63,107,4451,Correct
4F4K_incongruent,76,74,1,115,39.44,62.13,0.04,0.98,115,3225,Correct
4F4K_incongruent,76,75,2,108,53.78,64.6,0.06,1.01,97,3748,Incorrect
4F4K_incongruent,76,76,2,97,38.22,27.36,0.04,0.43,97,1517,Correct
4F4K_incongruent,76,77,1,115,38.45,69.26,0.04,1.09,115,10744,Correct
4F4K_incongruent,76,78,1,115,49.53,58.68,0.06,0.92,107,1963,Incorrect
4F4K_incongruent,76,79,2,108,27.94,61.0,0.03,0.96,108,6127,Correct
4F4K_incongruent,76,80,2,108,52.14,70.06,0.06,1.1,97,2715,Incorrect
4F4K_incongruent,76,81,1,107,43.94,27.84,0.05,0.44,115,7229,Incorrect
4F4K_incongruent,76,82,2,97,43.65,18.88,0.05,0.3,97,9543,Correct
4F4K_incongruent,76,83,1,115,29.21,51.44,0.03,0.81,107,9692,Incorrect
4F4K_incongruent,76,84,2,97,35.99,25.85,0.04,0.41,108,8571,Incorrect
4F4K_incongruent,76,85,1,107,74.45,58.15,0.08,0.91,115,5797,Incorrect
4F4K_incongruent,76,86,1,107,55.28,27.39,0.06,0.43,107,6838,Correct
4F4K_incongruent,76,87,1,115,49.73,57.93,0.06,0.91,115,3509,Correct
4F4K_incongruent,76,88,2,97,67.99,57.88,0.08,0.91,97,11050,Correct
4F4K_incongruent,76,89,1,107,76.63,55.85,0.09,0.88,115,6093,Incorrect
4F4K_incongruent,76,90,1,107,66.21,52.36,0.07,0.82,107,2467,Correct
4F4K_incongruent,76,91,1,107,54.86,37.45,0.06,0.59,107,3201,Correct
4F4K_incongruent,76,92,2,97,87.76,64.52,0.1,1.01,108,1784,Incorrect
4F4K_incongruent,76,93,2,108,62.66,85.14,0.07,1.34,97,2120,Incorrect
4F4K_incongruent,76,94,2,108,10.17,32.81,0.01,0.52,97,3243,Incorrect
4F4K_incongruent,76,95,2,97,64.14,37.13,0.07,0.58,97,9627,Correct
4F4K_incongruent,76,96,1,115,32.18,58.03,0.04,0.91,115,11000,Correct
4F4K_incongruent,76,97,1,115,32.44,48.83,0.04,0.77,115,3708,Correct
4F4K_incongruent,76,98,1,115,65.21,87.34,0.07,1.37,107,2133,Incorrect
4F4K_incongruent,76,99,2,108,33.52,49.74,0.04,0.78,108,22776,Correct
4F4K_incongruent,76,100,1,115,50.69,69.7,0.06,1.09,107,5528,Incorrect
4F4K_incongruent,76,101,1,107,57.38,27.01,0.06,0.42,107,1762,Correct
4F4K_incongruent,76,102,1,107,76.77,58.88,0.09,0.92,115,2182,Incorrect
4F4K_incongruent,76,103,2,108,41.89,70.34,0.05,1.1,108,18122,Correct
4F4K_incongruent,76,104,2,97,37.95,12.46,0.04,0.2,97,1435,Correct
4F4K_incongruent,76,105,1,107,64.23,39.78,0.07,0.62,115,5894,Incorrect
4F4K_incongruent,76,106,2,97,47.31,39.24,0.05,0.62,97,2192,Correct
4F4K_incongruent,76,107,2,108,38.3,63.42,0.04,1.0,108,1800,Correct
4F4K_incongruent,76,108,2,108,35.63,49.55,0.04,0.78,108,1638,Correct
4F4K_incongruent,76,109,2,97,49.32,18.46,0.06,0.29,97,1583,Correct
4F4K_incongruent,76,110,2,97,54.05,34.85,0.06,0.55,97,3503,Correct
4F4K_incongruent,76,111,2,97,61.41,47.04,0.07,0.74,97,7761,Correct
4F4K_incongruent,76,112,2,97,45.56,35.04,0.05,0.55,108,2653,Incorrect
4F4K_incongruent,76,113,2,97,51.56,27.78,0.06,0.44,108,2227,Incorrect
4F4K_incongruent,76,114,1,115,58.24,84.91,0.07,1.33,107,5018,Incorrect
4F4K_incongruent,76,115,1,115,16.41,46.34,0.02,0.73,107,3723,Incorrect
4F4K_incongruent,76,116,1,115,27.84,58.39,0.03,0.92,115,2258,Correct
4F4K_incongruent,76,117,1,115,64.75,80.02,0.07,1.26,107,3898,Incorrect
4F4K_incongruent,76,118,1,107,40.11,13.8,0.04,0.22,107,7350,Correct
4F4K_incongruent,76,119,1,107,36.53,15.05,0.04,0.24,107,2973,Correct
4F4K_incongruent,76,120,2,108,65.44,84.67,0.07,1.33,97,7883,Incorrect
4F4K_incongruent,76,121,1,107,32.9,15.21,0.04,0.24,115,2080,Incorrect
4F4K_incongruent,76,122,1,107,74.38,46.85,0.08,0.74,107,2438,Correct
4F4K_incongruent,76,123,1,107,66.33,41.57,0.07,0.65,107,2623,Correct
4F4K_incongruent,76,124,2,108,53.05,80.44,0.06,1.26,97,5908,Incorrect
4F4K_incongruent,76,125,1,115,44.6,70.99,0.05,1.12,115,1882,Correct
4F4K_incongruent,76,126,1,115,40.39,47.87,0.05,0.75,107,3394,Incorrect
4F4K_incongruent,76,127,1,115,56.21,83.5,0.06,1.31,107,1390,Incorrect
4F4K_incongruent,76,128,1,115,65.95,78.34,0.07,1.23,115,1183,Correct
4F4K_incongruent,76,129,2,97,61.76,38.79,0.07,0.61,97,4150,Correct
4F4K_incongruent,76,130,1,115,42.3,53.02,0.05,0.83,115,987,Correct
4F4K_incongruent,76,131,2,97,57.01,27.41,0.06,0.43,97,5164,Correct
4F4K_incongruent,76,132,1,107,73.14,49.28,0.08,0.77,115,2825,Incorrect
4F4K_incongruent,76,133,1,115,19.72,50.31,0.02,0.79,107,1308,Incorrect
4F4K_incongruent,76,134,1,115,28.8,40.09,0.03,0.63,115,1841,Correct
4F4K_incongruent,76,135,2,97,58.19,34.09,0.07,0.54,97,2237,Correct
4F4K_incongruent,76,136,1,107,41.94,22.24,0.05,0.35,115,1534,Incorrect
4F4K_incongruent,76,137,1,107,66.33,53.24,0.07,0.84,107,864,Correct
4F4K_incongruent,76,138,2,108,54.77,64.83,0.06,1.02,97,1337,Incorrect
4F4K_incongruent,76,139,2,108,35.06,55.33,0.04,0.87,97,3940,Incorrect
4F4K_incongruent,76,140,2,97,73.54,58.1,0.08,0.91,97,868,Correct
4F4K_incongruent,76,141,1,115,35.21,53.77,0.04,0.84,115,727,Correct
4F4K_incongruent,76,142,2,97,83.37,67.16,0.09,1.06,97,799,Correct
4F4K_incongruent,76,143,2,97,51.66,40.64,0.06,0.64,108,825,Incorrect
4F4K_incongruent,76,144,2,108,64.3,74.77,0.07,1.17,97,685,Incorrect
4F4K_incongruent,76,145,2,108,47.46,73.27,0.05,1.15,97,961,Incorrect
4F4K_incongruent,76,146,2,97,45.54,16.69,0.05,0.26,97,2157,Correct
4F4K_incongruent,76,147,1,115,22.37,52.94,0.03,0.83,115,854,Correct
4F4K_incongruent,76,148,1,107,81.44,56.0,0.09,0.88,107,818,Correct
4F4K_incongruent,76,149,2,108,40.06,54.35,0.04,0.85,108,3299,Correct
4F4K_incongruent,76,150,2,97,54.2,43.12,0.06,0.68,97,836,Correct
4F4K_incongruent,76,151,2,97,59.28,39.87,0.07,0.63,108,3710,Incorrect
4F4K_incongruent,76,152,2,108,38.09,68.94,0.04,1.08,97,878,Incorrect
4F4K_incongruent,76,153,2,108,34.12,52.72,0.04,0.83,108,12027,Correct
4F4K_incongruent,76,154,2,97,64.79,35.24,0.07,0.55,97,1731,Correct
4F4K_incongruent,76,155,1,107,39.02,26.18,0.04,0.41,115,2082,Incorrect
4F4K_incongruent,76,156,2,97,47.85,23.43,0.05,0.37,108,9184,Incorrect
4F4K_incongruent,76,157,2,108,30.89,54.72,0.03,0.86,108,1619,Correct
4F4K_incongruent,76,158,1,107,63.13,39.92,0.07,0.63,107,519,Correct
4F4K_incongruent,76,159,1,107,76.37,45.75,0.09,0.72,107,2438,Correct
4F4K_incongruent,76,160,2,97,76.22,59.07,0.09,0.93,97,2604,Correct
4F4K_incongruent,76,161,2,97,55.81,30.99,0.06,0.49,97,13075,Correct
4F4K_incongruent,76,162,2,97,56.15,35.6,0.06,0.56,97,1340,Correct
4F4K_incongruent,76,163,1,115,20.5,49.03,0.02,0.77,115,9646,Correct
4F4K_incongruent,76,164,2,97,46.88,26.58,0.05,0.42,97,2569,Correct
4F4K_incongruent,76,165,2,97,81.32,63.62,0.09,1.0,97,1189,Correct
4F4K_incongruent,76,166,1,107,54.26,26.24,0.06,0.41,115,452,Incorrect
4F4K_incongruent,76,167,2,108,55.52,72.09,0.06,1.13,97,1708,Incorrect
4F4K_incongruent,76,168,2,97,46.91,26.95,0.05,0.42,97,4094,Correct
4F4K_incongruent,76,169,1,107,88.45,64.78,0.1,1.02,115,900,Incorrect
4F4K_incongruent,76,170,2,97,67.63,57.19,0.08,0.9,97,4846,Correct
4F4K_incongruent,76,171,1,115,23.76,50.79,0.03,0.8,107,1591,Incorrect
4F4K_incongruent,76,172,1,115,39.62,63.08,0.04,0.99,115,1853,Correct
4F4K_incongruent,76,173,1,115,56.6,74.59,0.06,1.17,115,888,Correct
4F4K_incongruent,76,174,2,97,61.77,31.99,0.07,0.5,97,10130,Correct
4F4K_incongruent,76,175,2,108,65.53,83.06,0.07,1.3,97,1807,Incorrect
4F4K_incongruent,76,176,2,108,50.71,78.61,0.06,1.23,108,1465,Correct
4F4K_incongruent,76,177,2,108,58.07,72.42,0.06,1.14,108,1922,Correct
4F4K_incongruent,76,178,1,107,34.15,17.52,0.04,0.28,107,941,Correct
4F4K_incongruent,76,179,2,97,52.0,33.54,0.06,0.53,97,4964,Correct
4F4K_incongruent,76,180,2,97,50.35,30.27,0.06,0.48,97,1886,Correct
4F4K_incongruent,76,181,2,97,64.45,47.66,0.07,0.75,97,3034,Correct
4F4K_incongruent,76,182,1,107,43.41,34.38,0.05,0.54,107,436,Correct
4F4K_incongruent,76,183,1,107,63.19,44.78,0.07,0.7,107,548,Correct
4F4K_incongruent,76,184,2,108,30.9,61.3,0.03,0.96,108,2708,Correct
4F4K_incongruent,76,185,1,115,41.38,58.06,0.05,0.91,115,880,Correct
4F4K_incongruent,76,186,2,97,64.86,42.19,0.07,0.66,97,3511,Correct
4F4K_incongruent,76,187,1,115,67.57,89.55,0.08,1.41,115,1870,Correct
4F4K_incongruent,76,188,2,97,62.56,54.51,0.07,0.86,97,1679,Correct
4F4K_incongruent,76,189,1,107,48.29,25.28,0.05,0.4,107,365,Correct
4F4K_incongruent,76,190,1,107,87.55,68.1,0.1,1.07,115,749,Incorrect
4F4K_incongruent,76,191,1,115,17.61,38.88,0.02,0.61,115,1567,Correct
4F4K_incongruent,76,192,1,107,72.16,62.23,0.08,0.98,107,2590,Correct
4F4K_incongruent,76,193,1,115,23.88,49.57,0.03,0.78,115,939,Correct
4F4K_incongruent,76,194,2,108,24.14,52.86,0.03,0.83,108,3170,Correct
4F4K_incongruent,76,195,1,115,66.31,85.31,0.07,1.34,115,1396,Correct
4F4K_incongruent,76,196,1,107,54.08,36.86,0.06,0.58,107,912,Correct
4F4K_incongruent,76,197,2,108,39.18,60.35,0.04,0.95,97,4012,Incorrect
4F4K_incongruent,76,198,1,107,87.82,67.49,0.1,1.06,115,351,Incorrect
4F4K_incongruent,76,199,2,108,55.86,77.95,0.06,1.22,97,3413,Incorrect
4F4K_incongruent,76,200,2,97,52.59,44.46,0.06,0.7,97,3199,Correct
4F4K_incongruent,76,201,2,97,54.87,23.76,0.06,0.37,97,3742,Correct
4F4K_incongruent,76,202,2,108,21.55,37.41,0.02,0.59,108,2764,Correct
4F4K_incongruent,76,203,1,115,27.11,57.39,0.03,0.9,115,1299,Correct
4F4K_incongruent,76,204,1,107,45.01,15.82,0.05,0.25,115,1275,Incorrect
4F4K_incongruent,76,205,2,108,50.18,75.4,0.06,1.18,97,2571,Incorrect
4F4K_incongruent,76,206,1,115,19.99,35.99,0.02,0.57,115,889,Correct
4F4K_incongruent,76,207,2,97,67.9,56.08,0.08,0.88,108,5684,Incorrect
4F4K_incongruent,76,208,1,107,59.71,49.53,0.07,0.78,107,3657,Correct
4F4K_incongruent,76,209,2,97,86.8,66.42,0.1,1.04,97,2823,Correct
4F4K_incongruent,76,210,1,107,65.75,39.92,0.07,0.63,115,464,Incorrect
4F4K_incongruent,76,211,1,107,71.73,42.73,0.08,0.67,115,1477,Incorrect
4F4K_incongruent,76,212,2,108,64.04,82.18,0.07,1.29,97,9989,Incorrect
4F4K_incongruent,76,213,1,107,36.11,25.56,0.04,0.4,115,1033,Incorrect
4F4K_incongruent,76,214,2,97,48.68,35.82,0.05,0.56,108,5628,Incorrect
4F4K_incongruent,76,215,2,97,38.21,16.74,0.04,0.26,97,2167,Correct
4F4K_incongruent,76,216,2,108,21.78,52.06,0.02,0.82,108,1862,Correct
4F4K_incongruent,76,217,1,107,67.75,54.59,0.08,0.86,115,1075,Incorrect
4F4K_incongruent,76,218,2,108,46.45,72.45,0.05,1.14,108,4352,Correct
4F4K_incongruent,76,219,1,107,41.68,18.39,0.05,0.29,107,922,Correct
4F4K_incongruent,76,220,1,115,22.37,45.16,0.03,0.71,115,708,Correct
4F4K_incongruent,76,221,1,107,51.6,24.26,0.06,0.38,115,1014,Incorrect
4F4K_incongruent,76,222,1,115,42.91,62.14,0.05,0.98,115,722,Correct
4F4K_incongruent,76,223,1,107,37.26,21.29,0.04,0.33,107,1220,Correct
4F4K_incongruent,76,224,1,115,40.56,60.01,0.05,0.94,115,846,Correct
4F4K_incongruent,76,225,1,115,60.13,86.41,0.07,1.36,107,984,Incorrect
4F4K_incongruent,76,226,2,97,64.29,41.21,0.07,0.65,108,4689,Incorrect
4F4K_incongruent,76,227,1,107,58.9,37.21,0.07,0.58,115,1117,Incorrect
4F4K_incongruent,76,228,2,97,53.73,27.07,0.06,0.43,108,972,Incorrect
4F4K_incongruent,76,229,1,107,59.26,50.91,0.07,0.8,115,712,Incorrect
4F4K_incongruent,76,230,2,97,59.18,33.78,0.07,0.53,97,2133,Correct
4F4K_incongruent,76,231,2,108,68.51,85.94,0.08,1.35,97,2148,Incorrect
4F4K_incongruent,76,232,1,115,27.33,59.39,0.03,0.93,115,385,Correct
4F4K_incongruent,76,233,1,107,52.3,32.42,0.06,0.51,107,844,Correct
4F4K_incongruent,76,234,1,107,68.81,56.89,0.08,0.89,115,702,Incorrect
4F4K_incongruent,76,235,1,115,61.17,71.5,0.07,1.12,107,750,Incorrect
4F4K_incongruent,76,236,1,107,55.17,32.42,0.06,0.51,115,514,Incorrect
4F4K_incongruent,76,237,1,115,30.68,46.3,0.03,0.73,107,613,Incorrect
4F4K_incongruent,76,238,1,107,85.69,63.23,0.1,0.99,107,752,Correct
4F4K_incongruent,76,239,2,97,84.68,62.77,0.09,0.99,97,5248,Correct
4F4K_incongruent,76,240,1,115,32.16,40.63,0.04,0.64,115,326,Correct
4F4K_incongruent,76,241,1,115,27.98,38.88,0.03,0.61,115,484,Correct
4F4K_incongruent,76,242,2,97,36.72,22.64,0.04,0.36,108,3204,Incorrect
4F4K_incongruent,76,243,1,115,42.51,71.6,0.05,1.12,107,659,Incorrect
4F4K_incongruent,76,244,1,115,38.16,51.92,0.04,0.82,107,452,Incorrect
4F4K_incongruent,76,245,1,107,32.4,12.38,0.04,0.19,115,992,Incorrect
4F4K_incongruent,76,246,1,107,51.82,28.87,0.06,0.45,107,2346,Correct
4F4K_incongruent,76,247,2,97,85.35,61.91,0.1,0.97,97,2219,Correct
4F4K_incongruent,76,248,2,97,36.22,20.93,0.04,0.33,108,974,Incorrect
4F4K_incongruent,76,249,1,107,49.51,28.53,0.06,0.45,115,1495,Incorrect
4F4K_incongruent,76,250,1,107,54.17,26.64,0.06,0.42,115,615,Incorrect
4F4K_incongruent,76,251,2,97,52.42,27.01,0.06,0.42,97,2059,Correct
4F4K_incongruent,76,252,2,108,18.9,41.14,0.02,0.65,108,2897,Correct
4F4K_incongruent,76,253,1,115,52.75,61.05,0.06,0.96,115,484,Correct
4F4K_incongruent,76,254,2,108,36.48,69.74,0.04,1.1,108,2932,Correct
4F4K_incongruent,76,255,1,115,52.51,75.9,0.06,1.19,107,1877,Incorrect
4F4K_incongruent,76,256,1,115,14.47,30.96,0.02,0.49,107,786,Incorrect
4F4K_incongruent,76,257,2,108,46.88,64.0,0.05,1.01,108,3910,Correct
4F4K_incongruent,76,258,1,115,50.38,60.62,0.06,0.95,115,2037,Correct
4F4K_incongruent,76,259,2,108,52.6,72.42,0.06,1.14,108,1523,Correct
4F4K_incongruent,76,260,1,107,47.65,40.71,0.05,0.64,115,749,Incorrect
4F4K_incongruent,76,261,1,115,44.09,52.33,0.05,0.82,107,1525,Incorrect
4F4K_incongruent,76,262,2,108,31.97,61.0,0.04,0.96,108,2096,Correct
4F4K_incongruent,76,263,1,115,33.14,52.81,0.04,0.83,107,647,Incorrect
4F4K_incongruent,76,264,2,108,41.5,54.09,0.05,0.85,97,936,Incorrect
4F4K_incongruent,76,265,1,107,45.64,23.02,0.05,0.36,115,1369,Incorrect
4F4K_incongruent,76,266,1,115,23.43,43.42,0.03,0.68,107,1883,Incorrect
4F4K_incongruent,76,267,1,107,70.4,46.71,0.08,0.73,107,4467,Correct
4F4K_incongruent,76,268,2,108,31.23,50.27,0.03,0.79,108,1728,Correct
4F4K_incongruent,76,269,1,107,35.07,22.99,0.04,0.36,115,2595,Incorrect
4F4K_incongruent,76,270,2,97,85.31,63.03,0.1,0.99,97,2429,Correct
4F4K_incongruent,76,271,1,115,34.62,63.8,0.04,1.0,115,845,Correct
4F4K_incongruent,76,272,1,115,51.92,67.41,0.06,1.06,115,1663,Correct
4F4K_incongruent,76,273,1,107,56.83,42.27,0.06,0.66,107,1956,Correct
4F4K_incongruent,76,274,2,108,36.93,66.32,0.04,1.04,108,2664,Correct
4F4K_incongruent,76,275,1,107,43.55,21.49,0.05,0.34,107,847,Correct
4F4K_incongruent,76,276,2,97,30.59,11.2,0.03,0.18,108,3317,Incorrect
4F4K_incongruent,76,277,2,108,16.15,36.02,0.02,0.57,108,1579,Correct
4F4K_incongruent,76,278,1,115,14.76,34.14,0.02,0.54,115,2303,Correct
4F4K_incongruent,76,279,2,108,23.61,46.51,0.03,0.73,108,2242,Correct
4F4K_incongruent,76,280,1,107,84.2,65.7,0.09,1.03,115,1717,Incorrect
4F4K_incongruent,76,281,1,107,41.18,14.23,0.05,0.22,115,1093,Incorrect
4F4K_incongruent,76,282,1,115,18.2,35.85,0.02,0.56,107,2129,Incorrect
4F4K_incongruent,76,283,1,115,29.13,50.01,0.03,0.79,107,989,Incorrect
4F4K_incongruent,76,284,2,97,85.72,64.67,0.1,1.02,97,922,Correct
4F4K_incongruent,76,285,1,115,25.36,54.87,0.03,0.86,115,791,Correct
4F4K_incongruent,76,286,1,107,72.13,61.29,0.08,0.96,115,2870,Incorrect
4F4K_incongruent,76,287,1,107,76.23,60.33,0.09,0.95,107,727,Correct
4F4K_incongruent,76,288,2,108,38.83,61.03,0.04,0.96,108,2313,Correct
4F4K_incongruent,76,289,2,108,53.12,70.89,0.06,1.11,108,1013,Correct
4F4K_incongruent,76,290,1,107,68.97,56.01,0.08,0.88,115,2720,Incorrect
4F4K_incongruent,76,291,2,108,48.01,58.7,0.05,0.92,108,3098,Correct
4F4K_incongruent,76,292,1,107,44.71,33.11,0.05,0.52,115,4111,Incorrect
4F4K_incongruent,76,293,2,108,53.48,63.2,0.06,0.99,108,1121,Correct
4F4K_incongruent,76,294,2,108,61.92,77.25,0.07,1.21,108,2031,Correct
4F4K_incongruent,76,295,1,115,27.5,55.33,0.03,0.87,115,3833,Correct
4F4K_incongruent,76,296,1,107,63.12,35.46,0.07,0.56,107,1269,Correct
4F4K_incongruent,76,297,2,97,40.27,14.24,0.05,0.22,97,2870,Correct
4F4K_incongruent,76,298,1,115,50.42,63.55,0.06,1.0,107,2212,Incorrect
4F4K_incongruent,76,299,1,115,52.34,80.74,0.06,1.27,107,1124,Incorrect
4F4K_incongruent,76,300,1,107,45.68,35.52,0.05,0.56,107,1067,Correct
4F4K_incongruent,76,301,2,97,70.3,59.21,0.08,0.93,97,3922,Correct
4F4K_incongruent,76,302,2,108,41.88,68.45,0.05,1.08,108,9126,Correct
4F4K_incongruent,76,303,1,115,12.17,31.6,0.01,0.5,107,5577,Incorrect
4F4K_incongruent,76,304,1,115,51.59,62.72,0.06,0.99,115,827,Correct
4F4K_incongruent,76,305,2,97,35.0,17.46,0.04,0.27,97,3724,Correct
4F4K_incongruent,76,306,2,97,63.48,43.59,0.07,0.68,108,1198,Incorrect
4F4K_incongruent,76,307,2,108,39.8,54.67,0.04,0.86,97,4744,Incorrect
4F4K_incongruent,76,308,2,97,44.24,30.3,0.05,0.48,108,4676,Incorrect
4F4K_incongruent,76,309,2,97,70.86,39.76,0.08,0.62,97,2686,Correct
4F4K_incongruent,76,310,1,115,18.33,35.18,0.02,0.55,115,989,Correct
4F4K_incongruent,76,311,2,108,43.46,68.49,0.05,1.08,97,1445,Incorrect
4F4K_incongruent,76,312,2,108,12.41,32.29,0.01,0.51,108,2642,Correct
4F4K_incongruent,76,313,2,108,40.49,64.3,0.05,1.01,108,1584,Correct
4F4K_incongruent,76,314,2,108,30.64,61.23,0.03,0.96,108,1232,Correct
4F4K_incongruent,76,315,2,108,52.33,61.67,0.06,0.97,108,935,Correct
4F4K_incongruent,76,316,1,115,21.68,43.54,0.02,0.68,107,3454,Incorrect
4F4K_incongruent,76,317,1,115,41.71,59.7,0.05,0.94,115,807,Correct
4F4K_incongruent,76,318,2,97,82.58,67.72,0.09,1.06,97,966,Correct
4F4K_incongruent,76,319,2,97,66.47,38.32,0.07,0.6,108,1414,Incorrect
4F4K_incongruent,76,320,2,97,84.29,65.47,0.09,1.03,97,1905,Correct
4F4K_incongruent,76,321,2,108,50.85,63.91,0.06,1.0,108,2200,Correct
4F4K_incongruent,76,322,2,108,26.32,46.43,0.03,0.73,108,1915,Correct
4F4K_incongruent,76,323,2,97,36.83,19.03,0.04,0.3,108,3577,Incorrect
4F4K_incongruent,76,324,1,107,73.27,44.9,0.08,0.71,107,1350,Correct
4F4K_incongruent,76,325,1,115,29.76,39.85,0.03,0.63,115,1654,Correct
4F4K_incongruent,76,326,1,115,53.62,81.37,0.06,1.28,107,905,Incorrect
4F4K_incongruent,76,327,2,108,32.39,55.09,0.04,0.87,108,2048,Correct
4F4K_incongruent,76,328,1,107,70.42,41.01,0.08,0.64,115,936,Incorrect
4F4K_incongruent,76,329,1,107,48.76,20.9,0.05,0.33,115,1568,Incorrect
4F4K_incongruent,76,330,2,108,51.45,75.28,0.06,1.18,97,604,Incorrect
4F4K_incongruent,76,331,2,97,82.55,52.3,0.09,0.82,97,1022,Correct
4F4K_incongruent,76,332,2,97,49.83,29.35,0.06,0.46,108,1488,Incorrect
4F4K_incongruent,76,333,1,115,47.64,63.68,0.05,1.0,115,506,Correct
4F4K_incongruent,76,334,1,115,28.88,50.71,0.03,0.8,115,1087,Correct
4F4K_incongruent,76,335,2,97,58.71,50.78,0.07,0.8,97,5149,Correct
4F4K_incongruent,76,336,1,115,23.22,37.41,0.03,0.59,115,975,Correct
4F4K_incongruent,76,337,1,115,47.02,63.99,0.05,1.01,115,758,Correct
4F4K_incongruent,76,338,2,108,58.09,82.95,0.07,1.3,97,4519,Incorrect
4F4K_incongruent,76,339,1,115,58.94,80.39,0.07,1.26,107,1040,Incorrect
4F4K_incongruent,76,340,1,115,19.17,48.68,0.02,0.76,107,821,Incorrect
4F4K_incongruent,76,341,1,115,43.05,51.52,0.05,0.81,115,687,Correct
4F4K_incongruent,76,342,2,97,57.99,34.44,0.06,0.54,108,829,Incorrect
4F4K_incongruent,76,343,2,108,23.86,40.61,0.03,0.64,108,3400,Correct
4F4K_incongruent,76,344,1,115,45.27,61.99,0.05,0.97,115,889,Correct
4F4K_incongruent,76,345,2,108,66.69,80.78,0.07,1.27,97,1539,Incorrect
4F4K_incongruent,76,346,2,108,66.77,89.75,0.07,1.41,97,987,Incorrect
4F4K_incongruent,76,347,1,115,21.25,47.66,0.02,0.75,107,1637,Incorrect
4F4K_incongruent,76,348,2,108,29.12,43.38,0.03,0.68,108,2202,Correct
4F4K_incongruent,76,349,2,108,56.61,82.79,0.06,1.3,97,2354,Incorrect
4F4K_incongruent,76,350,2,97,62.61,39.01,0.07,0.61,108,859,Incorrect
4F4K_incongruent,76,351,2,108,56.3,75.73,0.06,1.19,108,1695,Correct
4F4K_incongruent,76,352,1,107,41.0,13.72,0.05,0.22,115,764,Incorrect
4F4K_incongruent,76,353,2,97,48.59,30.94,0.05,0.49,108,770,Incorrect
4F4K_incongruent,76,354,2,108,26.35,50.51,0.03,0.79,97,644,Incorrect
4F4K_incongruent,76,355,2,108,17.93,38.31,0.02,0.6,108,2669,Correct
4F4K_incongruent,76,356,1,115,61.72,83.33,0.07,1.31,115,2021,Correct
4F4K_incongruent,76,357,2,97,53.27,39.46,0.06,0.62,97,926,Correct
4F4K_incongruent,76,358,2,97,77.6,62.63,0.09,0.98,97,1069,Correct
4F4K_incongruent,76,359,2,97,58.75,29.67,0.07,0.47,108,2033,Incorrect
4F4K_incongruent,76,360,1,107,83.91,63.03,0.09,0.99,107,1067,Correct
4F4K_incongruent,76,361,1,115,41.94,61.89,0.05,0.97,107,1153,Incorrect
4F4K_incongruent,76,362,2,108,15.72,32.32,0.02,0.51,108,704,Correct
4F4K_incongruent,76,363,2,108,59.67,74.14,0.07,1.16,108,2813,Correct
4F4K_incongruent,76,364,1,107,51.97,44.47,0.06,0.7,115,499,Incorrect
4F4K_incongruent,76,365,1,107,37.13,25.08,0.04,0.39,107,1153,Correct
4F4K_incongruent,76,366,1,115,61.22,86.62,0.07,1.36,115,800,Correct
4F4K_incongruent,76,367,2,97,50.2,32.33,0.06,0.51,108,1092,Incorrect
4F4K_incongruent,76,368,1,107,66.28,51.43,0.07,0.81,115,1051,Incorrect
4F4K_incongruent,76,369,1,107,72.36,57.45,0.08,0.9,107,800,Correct
4F4K_incongruent,76,370,2,108,54.26,70.33,0.06,1.1,108,4263,Correct
4F4K_incongruent,76,371,2,97,76.82,54.84,0.09,0.86,97,3065,Correct
4F4K_incongruent,76,372,2,108,56.23,84.64,0.06,1.33,108,1399,Correct
4F4K_incongruent,76,373,2,97,59.56,26.77,0.07,0.42,108,1553,Incorrect
4F4K_incongruent,76,374,2,108,24.39,52.63,0.03,0.83,97,848,Incorrect
4F4K_incongruent,76,375,1,107,42.17,23.38,0.05,0.37,115,516,Incorrect
4F4K_incongruent,76,376,1,107,60.76,29.66,0.07,0.47,107,631,Correct
4F4K_incongruent,76,377,2,108,58.14,76.28,0.07,1.2,108,858,Correct
4F4K_incongruent,76,378,1,107,49.31,26.77,0.06,0.42,107,1390,Correct
4F4K_incongruent,76,379,1,107,59.05,29.91,0.07,0.47,107,462,Correct
4F4K_incongruent,76,380,2,97,79.68,61.49,0.09,0.97,97,893,Correct
4F4K_incongruent,76,381,1,115,20.01,38.01,0.02,0.6,107,1817,Incorrect
4F4K_incongruent,76,382,1,107,60.93,53.39,0.07,0.84,115,1800,Incorrect
4F4K_incongruent,76,383,1,107,74.63,62.74,0.08,0.99,115,1329,Incorrect
4F4K_incongruent,76,384,1,107,70.13,46.89,0.08,0.74,107,1130,Correct
4F4K_incongruent,76,385,1,115,58.93,84.61,0.07,1.33,107,2234,Incorrect
4F4K_incongruent,76,386,2,108,35.93,47.27,0.04,0.74,108,1310,Correct
4F4K_incongruent,76,387,1,115,62.51,73.75,0.07,1.16,115,719,Correct
4F4K_incongruent,76,388,2,108,53.33,61.78,0.06,0.97,108,630,Correct
4F4K_incongruent,76,389,2,97,48.51,38.44,0.05,0.6,97,1092,Correct
4F4K_incongruent,76,390,2,97,62.06,34.65,0.07,0.54,97,2404,Correct
4F4K_incongruent,76,391,1,107,55.87,23.73,0.06,0.37,107,1149,Correct
4F4K_incongruent,76,392,1,107,63.36,54.2,0.07,0.85,115,890,Incorrect
4F4K_incongruent,76,393,2,108,52.17,71.92,0.06,1.13,108,678,Correct
4F4K_incongruent,76,394,2,108,22.52,50.03,0.03,0.79,108,743,Correct
4F4K_incongruent,76,395,2,108,22.39,37.58,0.03,0.59,108,1154,Correct
4F4K_incongruent,76,396,2,97,41.43,25.92,0.05,0.41,108,2250,Incorrect
4F4K_incongruent,76,397,1,115,35.07,67.76,0.04,1.06,115,513,Correct
4F4K_incongruent,76,398,2,97,37.34,21.13,0.04,0.33,108,1828,Incorrect
