condition,subject,trial,sub_task,cat,x,y,xt,yt,resp,rt,fb
4F4K_congruent,35,0,1,115,13.74,36.7,0.02,0.58,107,3526,Incorrect
4F4K_congruent,35,1,1,115,35.97,50.93,0.04,0.8,107,1256,Incorrect
4F4K_congruent,35,2,2,108,80.55,59.32,0.09,0.93,108,1741,Correct
4F4K_congruent,35,3,2,97,30.61,53.83,0.03,0.85,97,976,Correct
4F4K_congruent,35,4,1,115,31.73,49.22,0.04,0.77,115,1048,Correct
4F4K_congruent,35,5,1,115,54.5,78.04,0.06,1.23,107,1051,Incorrect
4F4K_congruent,35,6,1,115,29.61,60.18,0.03,0.95,115,2248,Correct
4F4K_congruent,35,7,2,108,43.52,24.11,0.05,0.38,108,3712,Correct
4F4K_congruent,35,8,2,97,13.78,40.83,0.02,0.64,97,929,Correct
4F4K_congruent,35,9,1,115,45.08,60.02,0.05,0.94,115,1589,Correct
4F4K_congruent,35,10,2,108,31.11,16.96,0.03,0.27,97,2555,Incorrect
4F4K_congruent,35,11,1,107,70.73,44.59,0.08,0.7,107,2843,Correct
4F4K_congruent,35,12,1,115,37.59,56.15,0.04,0.88,115,1431,Correct
4F4K_congruent,35,13,2,97,48.22,64.78,0.05,1.02,108,1463,Incorrect
4F4K_congruent,35,14,1,115,49.04,60.33,0.05,0.95,107,3109,Incorrect
4F4K_congruent,35,15,1,107,69.65,39.97,0.08,0.63,115,1160,Incorrect
4F4K_congruent,35,16,2,97,35.37,60.26,0.04,0.95,97,2326,Correct
4F4K_congruent,35,17,2,97,57.75,86.1,0.06,1.35,108,1368,Incorrect
4F4K_congruent,35,18,2,97,37.79,46.16,0.04,0.73,108,1635,Incorrect
4F4K_congruent,35,19,2,108,86.81,68.63,0.1,1.08,97,819,Incorrect
4F4K_congruent,35,20,1,115,45.94,61.84,0.05,0.97,115,4785,Correct
4F4K_congruent,35,21,2,97,54.83,77.04,0.06,1.21,108,2582,Incorrect
4F4K_congruent,35,22,2,97,11.22,36.02,0.01,0.57,108,662,Incorrect
4F4K_congruent,35,23,1,107,59.56,48.55,0.07,0.76,115,12648,Incorrect
4F4K_congruent,35,24,2,97,42.25,50.75,0.05,0.8,97,4087,Correct
4F4K_congruent,35,25,2,108,85.29,66.61,0.1,1.05,108,2092,Correct
4F4K_congruent,35,26,2,97,15.96,33.93,0.02,0.53,97,899,Correct
4F4K_congruent,35,27,2,97,47.12,54.4,0.05,0.85,97,1036,Correct
4F4K_congruent,35,28,2,108,68.29,35.2,0.08,0.55,108,6389,Correct
4F4K_congruent,35,29,2,97,59.45,77.12,0.07,1.21,108,1746,Incorrect
4F4K_congruent,35,30,2,97,25.98,54.54,0.03,0.86,108,2477,Incorrect
4F4K_congruent,35,31,1,115,55.39,66.21,0.06,1.04,115,2608,Correct
4F4K_congruent,35,32,1,107,83.14,54.39,0.09,0.85,115,2625,Incorrect
4F4K_congruent,35,33,1,107,43.06,25.08,0.05,0.39,115,1360,Incorrect
4F4K_congruent,35,34,1,107,57.65,40.19,0.06,0.63,107,5382,Correct
4F4K_congruent,35,35,2,97,25.82,39.82,0.03,0.63,108,3939,Incorrect
4F4K_congruent,35,36,1,115,16.82,39.87,0.02,0.63,107,1447,Incorrect
4F4K_congruent,35,37,1,107,55.19,46.68,0.06,0.73,115,3604,Incorrect
4F4K_congruent,35,38,2,97,41.24,58.41,0.05,0.92,97,3467,Correct
4F4K_congruent,35,39,2,108,32.16,18.58,0.04,0.29,97,3232,Incorrect
4F4K_congruent,35,40,1,107,46.24,33.08,0.05,0.52,107,4067,Correct
4F4K_congruent,35,41,1,107,78.99,52.53,0.09,0.83,115,2915,Incorrect
4F4K_congruent,35,42,1,115,27.45,45.52,0.03,0.71,115,1085,Correct
4F4K_congruent,35,43,2,108,49.09,24.6,0.05,0.39,108,3800,Correct
4F4K_congruent,35,44,2,97,21.68,34.08,0.02,0.54,97,1134,Correct
4F4K_congruent,35,45,1,115,66.52,77.91,0.07,1.22,115,2678,Correct
4F4K_congruent,35,46,1,115,24.35,38.97,0.03,0.61,107,2512,Incorrect
4F4K_congruent,35,47,1,107,58.02,36.97,0.06,0.58,115,1292,Incorrect
4F4K_congruent,35,48,2,97,57.13,78.58,0.06,1.23,108,7002,Incorrect
4F4K_congruent,35,49,1,115,16.05,35.7,0.02,0.56,115,2770,Correct
4F4K_congruent,35,50,1,107,84.03,58.7,0.09,0.92,107,1729,Correct
4F4K_congruent,35,51,2,97,68.04,82.01,0.08,1.29,97,5996,Correct
4F4K_congruent,35,52,1,107,41.35,29.49,0.05,0.46,107,5033,Correct
4F4K_congruent,35,53,2,97,40.87,67.87,0.05,1.07,97,3775,Correct
4F4K_congruent,35,54,1,107,34.12,17.9,0.04,0.28,115,7214,Incorrect
4F4K_congruent,35,55,1,107,81.85,66.65,0.09,1.05,107,1625,Correct
4F4K_congruent,35,56,2,97,31.88,63.44,0.04,1.0,108,1941,Incorrect
4F4K_congruent,35,57,2,108,72.75,47.94,0.08,0.75,97,1551,Incorrect
4F4K_congruent,35,58,1,115,22.07,45.26,0.02,0.71,115,5004,Correct
4F4K_congruent,35,59,2,97,28.01,41.76,0.03,0.66,108,3706,Incorrect
4F4K_congruent,35,60,2,97,33.6,43.48,0.04,0.68,97,4784,Correct
4F4K_congruent,35,61,1,107,83.38,62.66,0.09,0.98,107,2189,Correct
4F4K_congruent,35,62,2,97,45.07,70.46,0.05,1.11,108,9426,Incorrect
4F4K_congruent,35,63,2,108,36.54,26.27,0.04,0.41,108,1155,Correct
4F4K_congruent,35,64,2,97,39.06,68.46,0.04,1.08,97,768,Correct
4F4K_congruent,35,65,1,107,67.66,55.6,0.08,0.87,107,1408,Correct
4F4K_congruent,35,66,2,97,66.19,86.73,0.07,1.36,97,855,Correct
4F4K_congruent,35,67,1,115,50.67,60.84,0.06,0.96,107,2847,Incorrect
4F4K_congruent,35,68,1,115,43.48,56.59,0.05,0.89,115,2988,Correct
4F4K_congruent,35,69,2,108,64.21,55.48,0.07,0.87,97,2453,Incorrect
4F4K_congruent,35,70,1,115,39.97,69.65,0.04,1.09,115,2961,Correct
4F4K_congruent,35,71,1,107,53.81,32.57,0.06,0.51,115,1014,Incorrect
4F4K_congruent,35,72,1,107,52.52,44.06,0.06,0.69,107,1937,Correct
4F4K_congruent,35,73,1,107,77.52,56.28,0.09,0.88,107,1066,Correct
4F4K_congruent,35,74,2,108,49.6,38.52,0.06,0.61,97,2742,Incorrect
4F4K_congruent,35,75,2,97,38.83,56.85,0.04,0.89,97,1537,Correct
4F4K_congruent,35,76,1,115,18.27,47.35,0.02,0.74,115,2414,Correct
4F4K_congruent,35,77,1,107,67.74,51.67,0.08,0.81,107,1109,Correct
4F4K_congruent,35,78,2,97,22.94,52.17,0.03,0.82,97,3981,Correct
4F4K_congruent,35,79,1,115,63.73,83.12,0.07,1.31,107,1156,Incorrect
4F4K_congruent,35,80,1,107,37.74,18.4,0.04,0.29,107,1495,Correct
4F4K_congruent,35,81,1,107,63.53,46.49,0.07,0.73,107,3179,Correct
4F4K_congruent,35,82,2,108,72.88,40.33,0.08,0.63,97,4187,Incorrect
4F4K_congruent,35,83,2,108,84.37,60.63,0.09,0.95,108,1401,Correct
4F4K_congruent,35,84,2,108,49.66,35.42,0.06,0.56,97,1002,Incorrect
4F4K_congruent,35,85,1,115,56.69,81.88,0.06,1.29,115,4771,Correct
4F4K_congruent,35,86,2,108,54.98,25.22,0.06,0.4,108,1673,Correct
4F4K_congruent,35,87,1,107,44.69,35.47,0.05,0.56,107,2017,Correct
4F4K_congruent,35,88,1,107,70.93,58.31,0.08,0.92,115,2850,Incorrect
4F4K_congruent,35,89,1,115,37.91,61.59,0.04,0.97,115,1077,Correct
4F4K_congruent,35,90,2,108,54.21,33.85,0.06,0.53,97,1988,Incorrect
4F4K_congruent,35,91,1,107,74.97,60.04,0.08,0.94,107,8461,Correct
4F4K_congruent,35,92,1,115,38.2,47.23,0.04,0.74,115,1109,Correct
4F4K_congruent,35,93,1,115,29.49,52.68,0.03,0.83,115,827,Correct
4F4K_congruent,35,94,1,115,60.71,80.47,0.07,1.26,107,718,Incorrect
4F4K_congruent,35,95,2,108,69.75,40.78,0.08,0.64,97,4843,Incorrect
4F4K_congruent,35,96,2,108,44.63,31.35,0.05,0.49,97,1198,Incorrect
4F4K_congruent,35,97,2,97,27.75,41.72,0.03,0.66,108,2078,Incorrect
4F4K_congruent,35,98,1,107,56.3,27.72,0.06,0.44,107,6713,Correct
4F4K_congruent,35,99,1,107,49.32,35.01,0.06,0.55,107,4415,Correct
4F4K_congruent,35,100,1,107,37.94,15.33,0.04,0.24,115,1207,Incorrect
4F4K_congruent,35,101,1,107,80.29,64.87,0.09,1.02,107,6004,Correct
4F4K_congruent,35,102,2,97,15.87,31.3,0.02,0.49,97,2356,Correct
4F4K_congruent,35,103,1,107,58.51,27.69,0.07,0.44,107,911,Correct
4F4K_congruent,35,104,2,108,66.25,34.24,0.07,0.54,97,862,Incorrect
4F4K_congruent,35,105,2,97,46.15,55.86,0.05,0.88,97,1093,Correct
4F4K_congruent,35,106,1,115,66.34,81.55,0.07,1.28,107,3974,Incorrect
4F4K_congruent,35,107,1,107,68.6,59.83,0.08,0.94,107,3129,Correct
4F4K_congruent,35,108,2,108,34.48,22.51,0.04,0.35,108,1672,Correct
4F4K_congruent,35,109,2,108,74.46,45.3,0.08,0.71,97,884,Incorrect
4F4K_congruent,35,110,1,107,44.61,30.58,0.05,0.48,115,887,Incorrect
4F4K_congruent,35,111,2,108,67.39,55.72,0.08,0.88,97,3650,Incorrect
4F4K_congruent,35,112,2,97,33.85,44.62,0.04,0.7,97,850,Correct
4F4K_congruent,35,113,1,107,41.42,20.04,0.05,0.31,115,1218,Incorrect
4F4K_congruent,35,114,2,97,32.89,41.35,0.04,0.65,97,1287,Correct
4F4K_congruent,35,115,2,97,33.07,53.63,0.04,0.84,97,820,Correct
4F4K_congruent,35,116,2,97,38.24,47.76,0.04,0.75,97,1503,Correct
4F4K_congruent,35,117,2,97,46.87,70.93,0.05,1.11,108,773,Incorrect
4F4K_congruent,35,118,2,108,42.01,18.95,0.05,0.3,108,1138,Correct
4F4K_congruent,35,119,2,108,44.41,21.91,0.05,0.34,108,1913,Correct
4F4K_congruent,35,120,2,97,33.07,41.6,0.04,0.65,108,5766,Incorrect
4F4K_congruent,35,121,2,108,34.54,20.6,0.04,0.32,108,3216,Correct
4F4K_congruent,35,122,2,97,50.44,58.29,0.06,0.92,97,563,Correct
4F4K_congruent,35,123,2,97,40.12,47.29,0.04,0.74,97,1493,Correct
4F4K_congruent,35,124,1,107,78.46,51.92,0.09,0.82,107,1117,Correct
4F4K_congruent,35,125,1,107,89.65,67.66,0.1,1.06,107,837,Correct
4F4K_congruent,35,126,1,115,51.84,70.31,0.06,1.1,115,2761,Correct
4F4K_congruent,35,127,2,108,48.58,22.57,0.05,0.35,108,901,Correct
4F4K_congruent,35,128,2,108,53.41,40.55,0.06,0.64,97,2104,Incorrect
4F4K_congruent,35,129,1,115,68.46,82.64,0.08,1.3,107,3048,Incorrect
4F4K_congruent,35,130,1,107,52.42,29.98,0.06,0.47,115,1981,Incorrect
4F4K_congruent,35,131,2,97,39.26,69.9,0.04,1.1,97,1123,Correct
4F4K_congruent,35,132,2,97,47.91,60.2,0.05,0.95,97,660,Correct
4F4K_congruent,35,133,1,107,48.83,23.89,0.05,0.38,115,1136,Incorrect
4F4K_congruent,35,134,2,97,20.42,49.43,0.02,0.78,108,1890,Incorrect
4F4K_congruent,35,135,2,108,62.97,31.72,0.07,0.5,97,2436,Incorrect
4F4K_congruent,35,136,1,107,58.65,47.63,0.07,0.75,107,1342,Correct
4F4K_congruent,35,137,1,107,72.77,44.15,0.08,0.69,107,1162,Correct
4F4K_congruent,35,138,2,108,64.93,46.05,0.07,0.72,97,3024,Incorrect
4F4K_congruent,35,139,1,107,66.31,56.92,0.07,0.89,107,826,Correct
4F4K_congruent,35,140,1,107,54.87,26.86,0.06,0.42,115,2982,Incorrect
4F4K_congruent,35,141,2,97,62.23,76.39,0.07,1.2,97,3309,Correct
4F4K_congruent,35,142,2,97,34.86,54.54,0.04,0.86,108,1135,Incorrect
4F4K_congruent,35,143,2,97,44.84,71.78,0.05,1.13,97,1108,Correct
4F4K_congruent,35,144,2,97,17.99,36.8,0.02,0.58,108,2241,Incorrect
4F4K_congruent,35,145,1,115,27.5,40.76,0.03,0.64,115,6461,Correct
4F4K_congruent,35,146,2,97,21.4,50.1,0.02,0.79,97,2804,Correct
4F4K_congruent,35,147,2,97,54.89,73.16,0.06,1.15,97,863,Correct
4F4K_congruent,35,148,1,115,59.29,82.58,0.07,1.3,107,2460,Incorrect
4F4K_congruent,35,149,1,115,56.63,80.01,0.06,1.26,107,1399,Incorrect
4F4K_congruent,35,150,2,108,31.19,16.92,0.03,0.27,108,1099,Correct
4F4K_congruent,35,151,2,108,81.8,61.14,0.09,0.96,97,2111,Incorrect
4F4K_congruent,35,152,2,108,51.84,29.64,0.06,0.47,97,1584,Incorrect
4F4K_congruent,35,153,1,107,60.62,45.7,0.07,0.72,107,2697,Correct
4F4K_congruent,35,154,2,97,27.74,50.0,0.03,0.79,97,7183,Correct
4F4K_congruent,35,155,2,97,41.47,49.55,0.05,0.78,97,4619,Correct
4F4K_congruent,35,156,1,115,20.02,45.09,0.02,0.71,115,1839,Correct
4F4K_congruent,35,157,2,108,33.74,16.15,0.04,0.25,108,1566,Correct
4F4K_congruent,35,158,2,108,38.02,12.52,0.04,0.2,108,761,Correct
4F4K_congruent,35,159,2,97,68.27,82.76,0.08,1.3,97,867,Correct
4F4K_congruent,35,160,2,97,28.55,43.94,0.03,0.69,97,2859,Correct
4F4K_congruent,35,161,2,97,28.1,59.69,0.03,0.94,97,2305,Correct
4F4K_congruent,35,162,1,115,39.37,66.75,0.04,1.05,115,2246,Correct
4F4K_congruent,35,163,2,97,30.48,46.52,0.03,0.73,108,2573,Incorrect
4F4K_congruent,35,164,2,108,68.11,53.61,0.08,0.84,97,1709,Incorrect
4F4K_congruent,35,165,1,115,30.1,45.95,0.03,0.72,115,1892,Correct
4F4K_congruent,35,166,2,108,57.47,30.44,0.06,0.48,108,995,Correct
4F4K_congruent,35,167,2,108,49.57,30.93,0.06,0.49,108,1865,Correct
4F4K_congruent,35,168,2,108,67.23,57.57,0.08,0.9,97,2244,Incorrect
4F4K_congruent,35,169,2,97,60.12,68.78,0.07,1.08,97,971,Correct
4F4K_congruent,35,170,2,97,29.32,45.31,0.03,0.71,108,2386,Incorrect
4F4K_congruent,35,171,2,108,42.14,30.22,0.05,0.47,108,2691,Correct
4F4K_congruent,35,172,1,107,65.48,35.83,0.07,0.56,107,3006,Correct
4F4K_congruent,35,173,2,108,44.84,21.62,0.05,0.34,97,1356,Incorrect
4F4K_congruent,35,174,1,107,46.46,17.34,0.05,0.27,107,3358,Correct
4F4K_congruent,35,175,1,107,63.22,31.18,0.07,0.49,107,4026,Correct
4F4K_congruent,35,176,2,97,11.66,37.52,0.01,0.59,108,3919,Incorrect
4F4K_congruent,35,177,2,108,36.07,25.37,0.04,0.4,108,2060,Correct
4F4K_congruent,35,178,2,108,70.33,49.59,0.08,0.78,97,1541,Incorrect
4F4K_congruent,35,179,2,97,37.73,57.52,0.04,0.9,97,5182,Correct
4F4K_congruent,35,180,1,115,16.55,31.69,0.02,0.5,115,1749,Correct
4F4K_congruent,35,181,1,115,27.11,51.95,0.03,0.82,115,1031,Correct
4F4K_congruent,35,182,2,108,55.11,27.17,0.06,0.43,108,5290,Correct
4F4K_congruent,35,183,2,108,48.69,25.71,0.05,0.4,108,1980,Correct
4F4K_congruent,35,184,2,108,84.39,68.72,0.09,1.08,97,1569,Incorrect
4F4K_congruent,35,185,2,108,58.51,41.44,0.07,0.65,108,758,Correct
4F4K_congruent,35,186,2,97,18.07,39.7,0.02,0.62,97,5063,Correct
4F4K_congruent,35,187,1,115,53.67,72.7,0.06,1.14,115,1990,Correct
4F4K_congruent,35,188,2,108,51.69,28.71,0.06,0.45,108,2393,Correct
4F4K_congruent,35,189,1,107,85.53,66.73,0.1,1.05,107,1453,Correct
4F4K_congruent,35,190,1,107,67.65,49.19,0.08,0.77,107,1703,Correct
4F4K_congruent,35,191,1,115,28.48,39.45,0.03,0.62,115,1201,Correct
4F4K_congruent,35,192,1,107,78.66,47.46,0.09,0.75,107,874,Correct
4F4K_congruent,35,193,1,107,54.46,38.0,0.06,0.6,107,3077,Correct
4F4K_congruent,35,194,1,115,27.8,58.24,0.03,0.91,115,763,Correct
4F4K_congruent,35,195,2,97,30.16,60.54,0.03,0.95,97,2523,Correct
4F4K_congruent,35,196,1,115,14.87,39.83,0.02,0.63,115,1259,Correct
4F4K_congruent,35,197,2,97,43.33,57.36,0.05,0.9,108,1263,Incorrect
4F4K_congruent,35,198,1,107,37.95,14.23,0.04,0.22,115,1884,Incorrect
4F4K_congruent,35,199,2,108,53.98,41.75,0.06,0.66,97,6691,Incorrect
4F4K_congruent,35,200,1,107,59.56,49.79,0.07,0.78,107,2736,Correct
4F4K_congruent,35,201,1,107,46.85,28.26,0.05,0.44,107,2117,Correct
4F4K_congruent,35,202,1,107,43.78,32.97,0.05,0.52,115,5095,Incorrect
4F4K_congruent,35,203,2,97,42.94,62.95,0.05,0.99,97,4184,Correct
4F4K_congruent,35,204,1,115,15.28,45.04,0.02,0.71,115,1121,Correct
4F4K_congruent,35,205,2,108,80.25,59.63,0.09,0.94,108,1012,Correct
4F4K_congruent,35,206,1,107,38.16,12.97,0.04,0.2,115,1460,Incorrect
4F4K_congruent,35,207,1,107,70.17,46.9,0.08,0.74,107,3912,Correct
4F4K_congruent,35,208,2,108,80.53,58.81,0.09,0.92,97,2519,Incorrect
4F4K_congruent,35,209,1,115,59.45,84.24,0.07,1.32,107,1033,Incorrect
4F4K_congruent,35,210,1,107,50.2,20.55,0.06,0.32,107,3488,Correct
4F4K_congruent,35,211,1,115,28.67,54.27,0.03,0.85,107,3855,Incorrect
4F4K_congruent,35,212,1,115,50.15,65.66,0.06,1.03,107,1508,Incorrect
4F4K_congruent,35,213,2,97,32.1,47.95,0.04,0.75,97,5756,Correct
4F4K_congruent,35,214,1,107,46.06,25.13,0.05,0.39,115,904,Incorrect
4F4K_congruent,35,215,2,97,48.87,77.31,0.05,1.21,108,4115,Incorrect
4F4K_congruent,35,216,1,107,72.47,51.85,0.08,0.81,107,834,Correct
4F4K_congruent,35,217,2,97,35.07,64.78,0.04,1.02,97,2288,Correct
4F4K_congruent,35,218,2,97,64.03,82.29,0.07,1.29,108,2945,Incorrect
4F4K_congruent,35,219,1,115,30.94,59.67,0.03,0.94,115,762,Correct
4F4K_congruent,35,220,1,107,54.14,47.35,0.06,0.74,107,1907,Correct
4F4K_congruent,35,221,1,107,63.45,37.6,0.07,0.59,107,737,Correct
4F4K_congruent,35,222,1,107,69.26,52.41,0.08,0.82,107,753,Correct
4F4K_congruent,35,223,2,97,68.31,86.49,0.08,1.36,97,1319,Correct
4F4K_congruent,35,224,1,115,43.73,63.18,0.05,0.99,115,640,Correct
4F4K_congruent,35,225,2,108,60.48,44.15,0.07,0.69,108,1691,Correct
4F4K_congruent,35,226,2,108,66.12,52.11,0.07,0.82,108,1116,Correct
4F4K_congruent,35,227,1,115,29.63,41.33,0.03,0.65,115,575,Correct
4F4K_congruent,35,228,1,115,32.22,52.09,0.04,0.82,115,741,Correct
4F4K_congruent,35,229,2,97,31.76,51.03,0.04,0.8,97,1355,Correct
4F4K_congruent,35,230,2,97,23.5,44.64,0.03,0.7,97,967,Correct
4F4K_congruent,35,231,2,108,73.04,43.52,0.08,0.68,108,509,Correct
4F4K_congruent,35,232,1,115,29.99,57.19,0.03,0.9,115,1143,Correct
4F4K_congruent,35,233,2,97,17.11,45.45,0.02,0.71,97,645,Correct
4F4K_congruent,35,234,1,115,62.72,83.97,0.07,1.32,107,534,Incorrect
4F4K_congruent,35,235,2,108,45.67,31.16,0.05,0.49,97,1359,Incorrect
4F4K_congruent,35,236,1,115,36.04,52.84,0.04,0.83,115,957,Correct
4F4K_congruent,35,237,1,107,73.15,52.47,0.08,0.82,107,566,Correct
4F4K_congruent,35,238,1,115,25.31,43.55,0.03,0.68,115,657,Correct
4F4K_congruent,35,239,2,108,75.1,62.24,0.08,0.98,108,842,Correct
4F4K_congruent,35,240,1,107,73.6,43.77,0.08,0.69,107,727,Correct
4F4K_congruent,35,241,1,115,16.56,37.0,0.02,0.58,115,525,Correct
4F4K_congruent,35,242,1,115,41.32,60.42,0.05,0.95,115,1212,Correct
4F4K_congruent,35,243,2,97,40.04,62.46,0.04,0.98,97,1082,Correct
4F4K_congruent,35,244,2,108,73.67,44.31,0.08,0.7,108,630,Correct
4F4K_congruent,35,245,2,97,61.85,83.7,0.07,1.31,108,724,Incorrect
4F4K_congruent,35,246,2,108,74.46,54.09,0.08,0.85,108,911,Correct
4F4K_congruent,35,247,1,115,18.54,37.75,0.02,0.59,115,1026,Correct
4F4K_congruent,35,248,1,107,54.63,42.84,0.06,0.67,115,2131,Incorrect
4F4K_congruent,35,249,2,108,64.17,50.27,0.07,0.79,108,1559,Correct
4F4K_congruent,35,250,2,97,32.2,58.98,0.04,0.93,97,655,Correct
4F4K_congruent,35,251,1,115,53.75,76.9,0.06,1.21,107,856,Incorrect
4F4K_congruent,35,252,2,108,47.39,22.8,0.05,0.36,108,962,Correct
4F4K_congruent,35,253,1,115,39.78,57.93,0.04,0.91,115,781,Correct
4F4K_congruent,35,254,1,107,59.01,34.15,0.07,0.54,107,745,Correct
4F4K_congruent,35,255,2,108,72.29,46.41,0.08,0.73,108,776,Correct
4F4K_congruent,35,256,1,115,38.22,63.2,0.04,0.99,115,773,Correct
4F4K_congruent,35,257,1,115,39.83,57.23,0.04,0.9,115,613,Correct
4F4K_congruent,35,258,1,115,41.61,60.19,0.05,0.95,115,661,Correct
4F4K_congruent,35,259,2,108,55.25,25.3,0.06,0.4,108,1086,Correct
4F4K_congruent,35,260,1,107,57.06,25.43,0.06,0.4,107,666,Correct
4F4K_congruent,35,261,2,108,53.74,39.13,0.06,0.61,108,800,Correct
4F4K_congruent,35,262,2,108,38.75,16.3,0.04,0.26,97,568,Incorrect
4F4K_congruent,35,263,1,115,26.88,40.8,0.03,0.64,115,777,Correct
4F4K_congruent,35,264,2,97,33.61,47.11,0.04,0.74,108,1224,Incorrect
4F4K_congruent,35,265,2,108,56.41,43.32,0.06,0.68,108,556,Correct
4F4K_congruent,35,266,1,115,64.34,79.19,0.07,1.24,107,772,Incorrect
4F4K_congruent,35,267,2,97,51.53,61.18,0.06,0.96,108,2209,Incorrect
4F4K_congruent,35,268,2,108,62.26,29.74,0.07,0.47,108,1752,Correct
4F4K_congruent,35,269,1,115,67.94,83.88,0.08,1.32,107,878,Incorrect
4F4K_congruent,35,270,2,108,58.2,50.1,0.07,0.79,108,973,Correct
4F4K_congruent,35,271,2,97,50.81,66.2,0.06,1.04,97,1492,Correct
4F4K_congruent,35,272,2,97,60.5,86.14,0.07,1.35,97,1610,Correct
4F4K_congruent,35,273,2,108,58.3,36.65,0.07,0.58,97,2179,Incorrect
4F4K_congruent,35,274,2,97,65.69,82.12,0.07,1.29,97,2267,Correct
4F4K_congruent,35,275,2,108,87.52,61.79,0.1,0.97,97,1391,Incorrect
4F4K_congruent,35,276,2,108,69.32,57.1,0.08,0.9,97,7279,Incorrect
4F4K_congruent,35,277,1,115,65.26,83.4,0.07,1.31,107,861,Incorrect
4F4K_congruent,35,278,2,97,44.27,56.6,0.05,0.89,97,1008,Correct
4F4K_congruent,35,279,2,108,74.63,46.77,0.08,0.73,108,664,Correct
4F4K_congruent,35,280,1,107,60.18,37.47,0.07,0.59,107,1190,Correct
4F4K_congruent,35,281,1,115,43.95,54.27,0.05,0.85,115,1647,Correct
4F4K_congruent,35,282,2,108,73.3,50.46,0.08,0.79,108,836,Correct
4F4K_congruent,35,283,1,115,37.49,52.77,0.04,0.83,115,580,Correct
4F4K_congruent,35,284,2,97,39.8,71.0,0.04,1.12,108,959,Incorrect
4F4K_congruent,35,285,1,107,45.8,30.7,0.05,0.48,107,558,Correct
4F4K_congruent,35,286,1,115,56.55,68.91,0.06,1.08,115,3363,Correct
4F4K_congruent,35,287,2,108,73.05,52.95,0.08,0.83,108,744,Correct
4F4K_congruent,35,288,1,107,44.7,21.64,0.05,0.34,115,777,Incorrect
4F4K_congruent,35,289,1,107,84.67,55.53,0.09,0.87,107,1091,Correct
4F4K_congruent,35,290,1,115,22.0,49.69,0.02,0.78,115,813,Correct
4F4K_congruent,35,291,2,97,39.08,48.62,0.04,0.76,97,1069,Correct
4F4K_congruent,35,292,1,115,56.27,83.16,0.06,1.31,115,1265,Correct
4F4K_congruent,35,293,2,108,67.59,50.98,0.08,0.8,108,617,Correct
4F4K_congruent,35,294,2,108,46.23,17.08,0.05,0.27,97,670,Incorrect
4F4K_congruent,35,295,2,97,45.77,64.93,0.05,1.02,97,1089,Correct
4F4K_congruent,35,296,1,107,32.52,16.56,0.04,0.26,115,640,Incorrect
4F4K_congruent,35,297,2,108,58.9,44.73,0.07,0.7,108,894,Correct
4F4K_congruent,35,298,1,115,45.21,77.13,0.05,1.21,115,1085,Correct
4F4K_congruent,35,299,1,115,51.4,63.83,0.06,1.0,107,765,Incorrect
4F4K_congruent,35,300,2,108,41.63,19.61,0.05,0.31,108,1785,Correct
4F4K_congruent,35,301,1,107,63.85,46.67,0.07,0.73,107,919,Correct
4F4K_congruent,35,302,1,115,37.16,57.33,0.04,0.9,115,844,Correct
4F4K_congruent,35,303,2,97,62.9,75.49,0.07,1.19,97,2128,Correct
4F4K_congruent,35,304,2,97,15.81,44.14,0.02,0.69,97,3882,Correct
4F4K_congruent,35,305,2,108,81.6,59.15,0.09,0.93,108,674,Correct
4F4K_congruent,35,306,1,107,62.57,32.18,0.07,0.51,107,1267,Correct
4F4K_congruent,35,307,2,108,78.32,62.52,0.09,0.98,108,958,Correct
4F4K_congruent,35,308,1,115,69.46,85.96,0.08,1.35,115,1566,Correct
4F4K_congruent,35,309,2,97,17.06,37.7,0.02,0.59,97,646,Correct
4F4K_congruent,35,310,2,108,80.41,67.75,0.09,1.06,108,973,Correct
4F4K_congruent,35,311,1,115,46.41,64.19,0.05,1.01,115,763,Correct
4F4K_congruent,35,312,2,97,38.96,51.63,0.04,0.81,108,2938,Incorrect
4F4K_congruent,35,313,1,107,67.81,39.73,0.08,0.62,107,873,Correct
4F4K_congruent,35,314,2,97,50.46,81.51,0.06,1.28,97,757,Correct
4F4K_congruent,35,315,2,108,46.07,29.74,0.05,0.47,97,1221,Incorrect
4F4K_congruent,35,316,1,107,83.33,67.39,0.09,1.06,107,723,Correct
4F4K_congruent,35,317,2,97,57.55,82.54,0.06,1.3,108,2121,Incorrect
4F4K_congruent,35,318,2,108,55.34,41.14,0.06,0.65,108,1054,Correct
4F4K_congruent,35,319,2,108,72.78,63.12,0.08,0.99,97,531,Incorrect
4F4K_congruent,35,320,2,108,84.66,55.3,0.09,0.87,108,851,Correct
4F4K_congruent,35,321,2,97,39.21,54.19,0.04,0.85,97,958,Correct
4F4K_congruent,35,322,2,97,62.44,73.35,0.07,1.15,97,1595,Correct
4F4K_congruent,35,323,2,108,79.04,64.61,0.09,1.01,108,740,Correct
4F4K_congruent,35,324,2,108,86.41,61.35,0.1,0.96,108,690,Correct
4F4K_congruent,35,325,1,107,76.69,63.83,0.09,1.0,107,874,Correct
4F4K_congruent,35,326,2,97,30.26,47.09,0.03,0.74,97,476,Correct
4F4K_congruent,35,327,2,97,23.77,45.98,0.03,0.72,97,529,Correct
4F4K_congruent,35,328,1,107,85.38,64.63,0.1,1.02,107,620,Correct
4F4K_congruent,35,329,1,115,66.79,81.95,0.07,1.29,115,857,Correct
4F4K_congruent,35,330,2,108,66.12,35.49,0.07,0.56,97,762,Incorrect
4F4K_congruent,35,331,2,108,54.42,37.77,0.06,0.59,97,1180,Incorrect
4F4K_congruent,35,332,1,115,56.78,73.18,0.06,1.15,107,668,Incorrect
4F4K_congruent,35,333,1,107,78.77,59.22,0.09,0.93,107,607,Correct
4F4K_congruent,35,334,2,97,30.11,61.64,0.03,0.97,97,1236,Correct
4F4K_congruent,35,335,2,97,18.73,44.28,0.02,0.7,97,1669,Correct
4F4K_congruent,35,336,1,107,83.79,55.62,0.09,0.87,107,723,Correct
4F4K_congruent,35,337,1,107,41.86,26.66,0.05,0.42,115,2446,Incorrect
4F4K_congruent,35,338,1,115,64.93,87.12,0.07,1.37,107,1559,Incorrect
4F4K_congruent,35,339,1,107,86.39,68.93,0.1,1.08,107,645,Correct
4F4K_congruent,35,340,1,115,27.33,38.14,0.03,0.6,115,648,Correct
4F4K_congruent,35,341,2,97,60.26,84.95,0.07,1.33,97,1880,Correct
4F4K_congruent,35,342,1,107,67.87,48.4,0.08,0.76,107,575,Correct
4F4K_congruent,35,343,1,107,36.35,18.74,0.04,0.29,115,857,Incorrect
4F4K_congruent,35,344,2,97,41.11,72.79,0.05,1.14,97,3021,Correct
4F4K_congruent,35,345,1,115,62.68,83.96,0.07,1.32,107,763,Incorrect
4F4K_congruent,35,346,2,108,50.25,24.85,0.06,0.39,108,944,Correct
4F4K_congruent,35,347,2,108,80.98,64.64,0.09,1.02,97,4095,Incorrect
4F4K_congruent,35,348,1,107,88.15,61.78,0.1,0.97,107,603,Correct
4F4K_congruent,35,349,2,97,23.62,41.91,0.03,0.66,97,726,Correct
4F4K_congruent,35,350,2,108,71.11,61.7,0.08,0.97,108,646,Correct
4F4K_congruent,35,351,2,108,73.56,53.69,0.08,0.84,108,713,Correct
4F4K_congruent,35,352,2,108,82.6,64.95,0.09,1.02,108,880,Correct
4F4K_congruent,35,353,2,108,87.62,62.35,0.1,0.98,108,790,Correct
4F4K_congruent,35,354,1,107,69.88,42.18,0.08,0.66,107,839,Correct
4F4K_congruent,35,355,1,107,52.31,27.42,0.06,0.43,115,1220,Incorrect
4F4K_congruent,35,356,1,115,46.59,74.85,0.05,1.18,115,814,Correct
4F4K_congruent,35,357,2,108,40.07,19.08,0.04,0.3,97,860,Incorrect
4F4K_congruent,35,358,1,107,60.18,31.75,0.07,0.5,107,911,Correct
4F4K_congruent,35,359,1,107,70.93,46.82,0.08,0.74,107,623,Correct
4F4K_congruent,35,360,2,108,57.21,28.01,0.06,0.44,97,1670,Incorrect
4F4K_congruent,35,361,1,115,15.6,37.83,0.02,0.59,115,704,Correct
4F4K_congruent,35,362,2,97,24.22,39.66,0.03,0.62,97,628,Correct
4F4K_congruent,35,363,1,107,57.38,25.55,0.06,0.4,107,606,Correct
4F4K_congruent,35,364,2,97,65.66,78.13,0.07,1.23,108,1021,Incorrect
4F4K_congruent,35,365,1,115,16.52,40.9,0.02,0.64,107,826,Incorrect
4F4K_congruent,35,366,2,108,36.54,18.11,0.04,0.28,108,2155,Correct
4F4K_congruent,35,367,2,97,66.65,82.86,0.07,1.3,97,939,Correct
4F4K_congruent,35,368,2,97,23.89,55.38,0.03,0.87,97,2781,Correct
4F4K_congruent,35,369,2,108,64.29,52.88,0.07,0.83,108,779,Correct
4F4K_congruent,35,370,2,97,32.79,63.94,0.04,1.0,97,754,Correct
4F4K_congruent,35,371,1,115,37.9,54.32,0.04,0.85,115,1056,Correct
4F4K_congruent,35,372,2,97,29.12,46.12,0.03,0.72,97,997,Correct
4F4K_congruent,35,373,1,115,38.16,50.77,0.04,0.8,107,2995,Incorrect
4F4K_congruent,35,374,1,115,42.75,61.9,0.05,0.97,115,760,Correct
4F4K_congruent,35,375,1,107,75.91,57.74,0.08,0.91,107,481,Correct
4F4K_congruent,35,376,2,108,53.76,27.18,0.06,0.43,108,2941,Correct
4F4K_congruent,35,377,2,108,63.02,39.32,0.07,0.62,108,1324,Correct
4F4K_congruent,35,378,1,115,49.32,69.1,0.06,1.09,115,885,Correct
4F4K_congruent,35,379,1,115,53.91,77.78,0.06,1.22,115,981,Correct
4F4K_congruent,35,380,2,97,50.25,57.81,0.06,0.91,97,1833,Correct
4F4K_congruent,35,381,1,107,78.24,51.91,0.09,0.82,107,595,Correct
4F4K_congruent,35,382,1,115,20.65,34.87,0.02,0.55,115,585,Correct
4F4K_congruent,35,383,2,97,14.77,38.1,0.02,0.6,97,1499,Correct
4F4K_congruent,35,384,2,108,42.28,26.58,0.05,0.42,97,822,Incorrect
4F4K_congruent,35,385,1,107,67.91,46.24,0.08,0.73,107,804,Correct
4F4K_congruent,35,386,2,108,58.08,28.71,0.06,0.45,108,725,Correct
4F4K_congruent,35,387,2,97,59.04,68.23,0.07,1.07,108,1730,Incorrect
4F4K_congruent,35,388,2,108,58.09,50.94,0.06,0.8,108,650,Correct
4F4K_congruent,35,389,2,108,63.26,30.45,0.07,0.48,108,858,Correct
4F4K_congruent,35,390,2,97,35.95,66.81,0.04,1.05,97,675,Correct
4F4K_congruent,35,391,2,108,45.88,18.63,0.05,0.29,97,2737,Incorrect
4F4K_congruent,35,392,1,115,27.49,44.38,0.03,0.7,115,1089,Correct
4F4K_congruent,35,393,2,97,59.29,71.47,0.07,1.12,108,789,Incorrect
4F4K_congruent,35,394,2,97,26.47,43.97,0.03,0.69,97,1089,Correct
4F4K_congruent,35,395,2,97,41.32,71.57,0.05,1.12,97,1544,Correct
4F4K_congruent,35,396,1,115,53.5,63.12,0.06,0.99,107,738,Incorrect
4F4K_congruent,35,397,1,107,70.89,54.15,0.08,0.85,107,529,Correct
4F4K_congruent,35,398,2,108,58.56,31.28,0.07,0.49,108,1653,Correct
