condition,subject,trial,sub_task,cat,x,y,xt,yt,resp,rt,fb
4F4K_incongruent,148,0,1,107,55.37,48.04,0.06,0.75,107,11146,Correct
4F4K_incongruent,148,1,2,97,42.75,14.37,0.05,0.23,108,6734,Incorrect
4F4K_incongruent,148,2,1,115,30.05,57.46,0.03,0.9,107,5227,Incorrect
4F4K_incongruent,148,3,2,97,67.26,38.38,0.08,0.6,108,4486,Incorrect
4F4K_incongruent,148,4,2,97,79.83,50.93,0.09,0.8,97,5929,Correct
4F4K_incongruent,148,5,1,107,88.55,64.05,0.1,1.01,107,3107,Correct
4F4K_incongruent,148,6,2,108,45.86,52.64,0.05,0.83,97,3966,Incorrect
4F4K_incongruent,148,7,1,107,68.12,49.83,0.08,0.78,107,1921,Correct
4F4K_incongruent,148,8,1,107,45.87,29.17,0.05,0.46,107,3920,Correct
4F4K_incongruent,148,9,1,107,86.14,69.41,0.1,1.09,107,2180,Correct
4F4K_incongruent,148,10,2,108,60.28,78.29,0.07,1.23,97,2267,Incorrect
4F4K_incongruent,148,11,2,97,60.29,42.26,0.07,0.66,97,3633,Correct
4F4K_incongruent,148,12,2,108,34.79,63.5,0.04,1.0,108,6685,Correct
4F4K_incongruent,148,13,2,97,52.16,35.77,0.06,0.56,108,5506,Incorrect
4F4K_incongruent,148,14,1,107,47.32,17.59,0.05,0.28,115,4797,Incorrect
4F4K_incongruent,148,15,2,97,32.77,11.65,0.04,0.18,108,6694,Incorrect
4F4K_incongruent,148,16,1,107,35.16,22.91,0.04,0.36,107,4735,Correct
4F4K_incongruent,148,17,1,115,49.63,75.78,0.06,1.19,107,2502,Incorrect
4F4K_incongruent,148,18,1,107,64.0,31.01,0.07,0.49,107,5346,Correct
4F4K_incongruent,148,19,2,108,44.52,70.26,0.05,1.1,108,7554,Correct
4F4K_incongruent,148,20,2,97,48.79,35.36,0.05,0.56,97,12928,Correct
4F4K_incongruent,148,21,1,107,86.1,64.52,0.1,1.01,107,1877,Correct
4F4K_incongruent,148,22,2,108,47.83,68.79,0.05,1.08,108,5505,Correct
4F4K_incongruent,148,23,1,115,28.12,59.19,0.03,0.93,107,9501,Incorrect
4F4K_incongruent,148,24,1,115,53.18,69.02,0.06,1.08,115,14263,Correct
4F4K_incongruent,148,25,1,115,34.99,67.57,0.04,1.06,107,7125,Incorrect
4F4K_incongruent,148,26,2,97,76.05,48.27,0.09,0.76,108,8585,Incorrect
4F4K_incongruent,148,27,2,97,80.76,60.95,0.09,0.96,97,16627,Correct
4F4K_incongruent,148,28,2,97,56.12,33.23,0.06,0.52,108,2187,Incorrect
4F4K_incongruent,148,29,1,115,63.16,82.82,0.07,1.3,115,6076,Correct
4F4K_incongruent,148,30,1,115,62.34,74.05,0.07,1.16,115,1306,Correct
4F4K_incongruent,148,31,1,115,69.17,87.75,0.08,1.38,115,1179,Correct
4F4K_incongruent,148,32,2,97,38.94,26.16,0.04,0.41,108,32442,Incorrect
4F4K_incongruent,148,33,2,108,61.64,73.42,0.07,1.15,108,3770,Correct
4F4K_incongruent,148,34,2,108,22.65,46.61,0.03,0.73,108,2886,Correct
4F4K_incongruent,148,35,1,115,27.42,42.72,0.03,0.67,115,4543,Correct
4F4K_incongruent,148,36,2,108,35.23,65.45,0.04,1.03,108,5257,Correct
4F4K_incongruent,148,37,1,115,29.19,50.3,0.03,0.79,115,3286,Correct
4F4K_incongruent,148,38,1,107,85.37,58.59,0.1,0.92,115,2323,Incorrect
4F4K_incongruent,148,39,1,115,14.94,43.34,0.02,0.68,107,1673,Incorrect
4F4K_incongruent,148,40,2,108,32.15,61.86,0.04,0.97,108,1820,Correct
4F4K_incongruent,148,41,1,107,42.32,31.89,0.05,0.5,107,1694,Correct
4F4K_incongruent,148,42,1,115,47.5,77.5,0.05,1.22,115,926,Correct
4F4K_incongruent,148,43,1,115,40.45,70.65,0.05,1.11,115,879,Correct
4F4K_incongruent,148,44,1,107,61.8,35.24,0.07,0.55,107,1121,Correct
4F4K_incongruent,148,45,1,115,18.89,35.01,0.02,0.55,107,1004,Incorrect
4F4K_incongruent,148,46,2,97,79.4,51.13,0.09,0.8,97,1586,Correct
4F4K_incongruent,148,47,2,108,27.92,48.24,0.03,0.76,97,1543,Incorrect
4F4K_incongruent,148,48,2,108,35.7,52.12,0.04,0.82,97,1195,Incorrect
4F4K_incongruent,148,49,1,115,27.68,40.24,0.03,0.63,107,1714,Incorrect
4F4K_incongruent,148,50,1,107,46.25,38.57,0.05,0.61,115,1190,Incorrect
4F4K_incongruent,148,51,2,108,22.03,46.97,0.02,0.74,108,6465,Correct
4F4K_incongruent,148,52,1,115,19.92,34.95,0.02,0.55,115,4728,Correct
4F4K_incongruent,148,53,1,107,45.74,35.64,0.05,0.56,107,2084,Correct
4F4K_incongruent,148,54,1,115,43.55,71.47,0.05,1.12,115,1525,Correct
4F4K_incongruent,148,55,2,97,70.4,56.98,0.08,0.9,108,3545,Incorrect
4F4K_incongruent,148,56,1,107,70.01,52.64,0.08,0.83,115,1302,Incorrect
4F4K_incongruent,148,57,1,115,47.28,67.0,0.05,1.05,107,2112,Incorrect
4F4K_incongruent,148,58,1,107,71.31,43.89,0.08,0.69,107,1583,Correct
4F4K_incongruent,148,59,2,108,54.25,75.6,0.06,1.19,108,2201,Correct
4F4K_incongruent,148,60,1,107,76.88,61.06,0.09,0.96,115,3200,Incorrect
4F4K_incongruent,148,61,2,108,46.45,63.04,0.05,0.99,108,2327,Correct
4F4K_incongruent,148,62,2,97,50.75,26.37,0.06,0.41,97,3431,Correct
4F4K_incongruent,148,63,2,97,57.8,28.75,0.06,0.45,108,3117,Incorrect
4F4K_incongruent,148,64,1,107,42.43,14.56,0.05,0.23,107,2898,Correct
4F4K_incongruent,148,65,2,97,40.68,20.28,0.05,0.32,97,2391,Correct
4F4K_incongruent,148,66,1,107,76.13,61.07,0.09,0.96,107,1745,Correct
4F4K_incongruent,148,67,2,108,50.19,68.22,0.06,1.07,97,3395,Incorrect
4F4K_incongruent,148,68,2,97,66.02,58.21,0.07,0.91,108,1757,Incorrect
4F4K_incongruent,148,69,2,97,84.76,69.08,0.09,1.09,108,1773,Incorrect
4F4K_incongruent,148,70,2,97,49.75,22.11,0.06,0.35,108,2113,Incorrect
4F4K_incongruent,148,71,2,97,41.84,33.13,0.05,0.52,108,1452,Incorrect
4F4K_incongruent,148,72,1,115,15.83,44.19,0.02,0.69,107,4840,Incorrect
4F4K_incongruent,148,73,2,97,64.06,52.87,0.07,0.83,108,2873,Incorrect
4F4K_incongruent,148,74,1,115,45.32,66.87,0.05,1.05,115,7853,Correct
4F4K_incongruent,148,75,1,115,20.75,50.94,0.02,0.8,107,2887,Incorrect
4F4K_incongruent,148,76,1,115,52.44,69.1,0.06,1.09,115,1341,Correct
4F4K_incongruent,148,77,2,108,33.32,49.15,0.04,0.77,108,2775,Correct
4F4K_incongruent,148,78,2,108,34.31,64.27,0.04,1.01,108,3190,Correct
4F4K_incongruent,148,79,1,107,45.3,29.59,0.05,0.46,107,840,Correct
4F4K_incongruent,148,80,2,108,30.31,53.3,0.03,0.84,108,1155,Correct
4F4K_incongruent,148,81,1,107,50.47,26.12,0.06,0.41,107,731,Correct
4F4K_incongruent,148,82,2,108,13.55,30.8,0.02,0.48,108,1733,Correct
4F4K_incongruent,148,83,2,108,54.99,82.3,0.06,1.29,97,2585,Incorrect
4F4K_incongruent,148,84,1,115,39.66,67.94,0.04,1.07,115,3110,Correct
4F4K_incongruent,148,85,2,97,62.4,31.52,0.07,0.5,108,5431,Incorrect
4F4K_incongruent,148,86,2,108,67.12,85.3,0.08,1.34,97,1192,Incorrect
4F4K_incongruent,148,87,1,115,44.51,65.42,0.05,1.03,115,1966,Correct
4F4K_incongruent,148,88,1,107,51.17,33.29,0.06,0.52,107,2906,Correct
4F4K_incongruent,148,89,2,108,26.29,36.3,0.03,0.57,97,4708,Incorrect
4F4K_incongruent,148,90,1,115,68.16,84.86,0.08,1.33,115,3393,Correct
4F4K_incongruent,148,91,1,107,40.91,17.06,0.05,0.27,107,1105,Correct
4F4K_incongruent,148,92,1,107,54.05,30.33,0.06,0.48,107,810,Correct
4F4K_incongruent,148,93,2,97,73.01,59.2,0.08,0.93,97,3672,Correct
4F4K_incongruent,148,94,1,115,55.23,83.91,0.06,1.32,115,1824,Correct
4F4K_incongruent,148,95,2,108,50.53,72.17,0.06,1.13,97,3437,Incorrect
4F4K_incongruent,148,96,1,107,36.73,23.88,0.04,0.38,107,1749,Correct
4F4K_incongruent,148,97,2,97,40.46,14.94,0.05,0.23,108,4758,Incorrect
4F4K_incongruent,148,98,1,115,61.69,81.7,0.07,1.28,115,1328,Correct
4F4K_incongruent,148,99,2,108,35.42,48.22,0.04,0.76,97,4204,Incorrect
4F4K_incongruent,148,100,1,107,77.0,51.59,0.09,0.81,115,1310,Incorrect
4F4K_incongruent,148,101,1,115,52.67,83.08,0.06,1.3,115,1034,Correct
4F4K_incongruent,148,102,1,107,60.43,40.87,0.07,0.64,107,1323,Correct
4F4K_incongruent,148,103,1,107,45.98,29.96,0.05,0.47,107,1135,Correct
4F4K_incongruent,148,104,1,107,85.99,57.98,0.1,0.91,115,1197,Incorrect
4F4K_incongruent,148,105,1,107,73.07,61.52,0.08,0.97,107,1214,Correct
4F4K_incongruent,148,106,2,108,57.91,84.15,0.06,1.32,108,3211,Correct
4F4K_incongruent,148,107,1,107,32.39,13.33,0.04,0.21,107,2563,Correct
4F4K_incongruent,148,108,1,115,52.57,69.2,0.06,1.09,115,1716,Correct
4F4K_incongruent,148,109,1,107,62.8,46.46,0.07,0.73,107,1480,Correct
4F4K_incongruent,148,110,2,97,50.13,22.08,0.06,0.35,108,4134,Incorrect
4F4K_incongruent,148,111,2,108,12.01,35.08,0.01,0.55,108,1903,Correct
4F4K_incongruent,148,112,2,108,52.88,78.05,0.06,1.23,108,2283,Correct
4F4K_incongruent,148,113,1,115,25.49,56.91,0.03,0.89,115,3461,Correct
4F4K_incongruent,148,114,1,115,15.64,37.22,0.02,0.58,107,4633,Incorrect
4F4K_incongruent,148,115,1,107,60.31,32.15,0.07,0.51,107,1365,Correct
4F4K_incongruent,148,116,2,97,61.5,38.33,0.07,0.6,108,2787,Incorrect
4F4K_incongruent,148,117,1,107,48.29,20.97,0.05,0.33,107,2848,Correct
4F4K_incongruent,148,118,2,108,26.41,54.36,0.03,0.85,97,5429,Incorrect
4F4K_incongruent,148,119,1,115,24.13,42.91,0.03,0.67,115,6275,Correct
4F4K_incongruent,148,120,1,107,61.33,28.23,0.07,0.44,107,1350,Correct
4F4K_incongruent,148,121,1,115,63.39,77.41,0.07,1.22,115,885,Correct
4F4K_incongruent,148,122,1,115,47.75,54.36,0.05,0.85,115,1905,Correct
4F4K_incongruent,148,123,2,97,84.27,55.33,0.09,0.87,108,4498,Incorrect
4F4K_incongruent,148,124,1,107,69.83,50.73,0.08,0.8,115,1719,Incorrect
4F4K_incongruent,148,125,2,97,68.31,51.63,0.08,0.81,108,1707,Incorrect
4F4K_incongruent,148,126,1,115,24.6,54.87,0.03,0.86,115,4448,Correct
4F4K_incongruent,148,127,2,108,53.42,83.47,0.06,1.31,97,8305,Incorrect
4F4K_incongruent,148,128,2,108,35.03,65.89,0.04,1.03,108,4765,Correct
4F4K_incongruent,148,129,1,107,43.81,31.53,0.05,0.5,107,1312,Correct
4F4K_incongruent,148,130,2,108,36.39,51.64,0.04,0.81,108,2145,Correct
4F4K_incongruent,148,131,1,107,89.19,66.11,0.1,1.04,115,1515,Incorrect
4F4K_incongruent,148,132,1,107,31.2,17.36,0.03,0.27,107,1890,Correct
4F4K_incongruent,148,133,2,108,42.35,57.67,0.05,0.91,97,3657,Incorrect
4F4K_incongruent,148,134,2,108,20.31,41.33,0.02,0.65,108,1043,Correct
4F4K_incongruent,148,135,1,107,51.77,45.01,0.06,0.71,107,1899,Correct
4F4K_incongruent,148,136,1,107,71.0,57.75,0.08,0.91,107,1549,Correct
4F4K_incongruent,148,137,1,115,11.6,35.47,0.01,0.56,107,2193,Incorrect
4F4K_incongruent,148,138,1,115,66.16,79.17,0.07,1.24,115,1188,Correct
4F4K_incongruent,148,139,2,108,47.14,60.03,0.05,0.94,108,5120,Correct
4F4K_incongruent,148,140,1,115,46.92,72.39,0.05,1.14,115,1724,Correct
4F4K_incongruent,148,141,2,97,77.56,53.69,0.09,0.84,108,371,Incorrect
4F4K_incongruent,148,142,2,97,51.3,38.0,0.06,0.6,108,1287,Incorrect
4F4K_incongruent,148,143,2,97,35.72,13.1,0.04,0.21,108,3262,Incorrect
4F4K_incongruent,148,144,2,97,72.4,53.32,0.08,0.84,97,1031,Correct
4F4K_incongruent,148,145,1,115,64.22,88.06,0.07,1.38,115,1279,Correct
4F4K_incongruent,148,146,1,107,64.83,47.86,0.07,0.75,115,1875,Incorrect
4F4K_incongruent,148,147,1,107,35.55,21.99,0.04,0.35,107,2345,Correct
4F4K_incongruent,148,148,2,97,46.21,17.67,0.05,0.28,108,1299,Incorrect
4F4K_incongruent,148,149,1,115,16.07,33.24,0.02,0.52,107,1643,Incorrect
4F4K_incongruent,148,150,1,107,70.85,40.89,0.08,0.64,107,1374,Correct
4F4K_incongruent,148,151,2,97,48.87,23.13,0.05,0.36,97,5282,Correct
4F4K_incongruent,148,152,1,115,56.21,76.38,0.06,1.2,115,1311,Correct
4F4K_incongruent,148,153,2,108,56.63,83.53,0.06,1.31,97,1595,Incorrect
4F4K_incongruent,148,154,1,107,33.48,16.61,0.04,0.26,107,3413,Correct
4F4K_incongruent,148,155,1,107,30.83,15.78,0.03,0.25,107,1521,Correct
4F4K_incongruent,148,156,1,107,66.57,34.7,0.07,0.55,107,1247,Correct
4F4K_incongruent,148,157,1,107,67.47,43.2,0.08,0.68,107,1371,Correct
4F4K_incongruent,148,158,2,97,74.05,49.53,0.08,0.78,97,2049,Correct
4F4K_incongruent,148,159,1,107,59.95,44.78,0.07,0.7,107,1383,Correct
4F4K_incongruent,148,160,2,97,47.31,24.41,0.05,0.38,108,2229,Incorrect
4F4K_incongruent,148,161,1,107,65.74,48.34,0.07,0.76,107,2381,Correct
4F4K_incongruent,148,162,1,107,75.58,57.64,0.08,0.91,107,4170,Correct
4F4K_incongruent,148,163,2,97,63.79,36.5,0.07,0.57,108,3491,Incorrect
4F4K_incongruent,148,164,1,107,36.79,17.49,0.04,0.27,107,1339,Correct
4F4K_incongruent,148,165,2,97,53.48,28.18,0.06,0.44,108,1167,Incorrect
4F4K_incongruent,148,166,2,97,71.57,48.31,0.08,0.76,97,1250,Correct
4F4K_incongruent,148,167,1,115,57.15,83.81,0.06,1.32,115,1262,Correct
4F4K_incongruent,148,168,2,108,47.14,55.93,0.05,0.88,97,915,Incorrect
4F4K_incongruent,148,169,1,115,67.68,89.04,0.08,1.4,115,1060,Correct
4F4K_incongruent,148,170,1,115,24.04,35.87,0.03,0.56,107,2310,Incorrect
4F4K_incongruent,148,171,2,97,37.89,28.17,0.04,0.44,97,5510,Correct
4F4K_incongruent,148,172,1,115,38.85,62.21,0.04,0.98,107,1962,Incorrect
4F4K_incongruent,148,173,2,108,45.64,69.31,0.05,1.09,108,2695,Correct
4F4K_incongruent,148,174,1,107,30.23,11.62,0.03,0.18,107,1259,Correct
4F4K_incongruent,148,175,2,108,38.46,52.0,0.04,0.82,97,2787,Incorrect
4F4K_incongruent,148,176,1,107,66.41,37.92,0.07,0.6,107,1608,Correct
4F4K_incongruent,148,177,2,108,52.81,82.31,0.06,1.29,108,2700,Correct
4F4K_incongruent,148,178,1,107,50.25,31.03,0.06,0.49,107,1399,Correct
4F4K_incongruent,148,179,2,108,67.7,86.26,0.08,1.35,108,3701,Correct
4F4K_incongruent,148,180,2,108,44.33,57.47,0.05,0.9,108,3154,Correct
4F4K_incongruent,148,181,1,107,45.58,35.72,0.05,0.56,107,1368,Correct
4F4K_incongruent,148,182,1,115,12.74,30.07,0.01,0.47,115,2095,Correct
4F4K_incongruent,148,183,1,107,32.45,13.12,0.04,0.21,107,1491,Correct
4F4K_incongruent,148,184,1,115,29.47,58.33,0.03,0.92,107,1509,Incorrect
4F4K_incongruent,148,185,1,115,25.44,42.65,0.03,0.67,107,780,Incorrect
4F4K_incongruent,148,186,2,97,56.18,47.42,0.06,0.74,97,3197,Correct
4F4K_incongruent,148,187,2,97,44.53,26.57,0.05,0.42,97,1075,Correct
4F4K_incongruent,148,188,1,115,56.29,82.03,0.06,1.29,115,1183,Correct
4F4K_incongruent,148,189,2,97,60.82,42.57,0.07,0.67,97,4936,Correct
4F4K_incongruent,148,190,1,115,37.16,55.06,0.04,0.86,107,2158,Incorrect
4F4K_incongruent,148,191,2,97,67.63,52.43,0.08,0.82,97,2585,Correct
4F4K_incongruent,148,192,1,115,42.12,59.35,0.05,0.93,107,1718,Incorrect
4F4K_incongruent,148,193,1,107,61.45,47.52,0.07,0.75,107,1524,Correct
4F4K_incongruent,148,194,1,107,49.73,42.94,0.06,0.67,107,1122,Correct
4F4K_incongruent,148,195,2,97,62.41,47.68,0.07,0.75,97,887,Correct
4F4K_incongruent,148,196,2,108,30.71,55.04,0.03,0.86,108,2613,Correct
4F4K_incongruent,148,197,1,107,56.4,40.68,0.06,0.64,107,1186,Correct
4F4K_incongruent,148,198,2,108,47.4,60.51,0.05,0.95,108,2542,Correct
4F4K_incongruent,148,199,1,115,46.75,59.18,0.05,0.93,115,2167,Correct
4F4K_incongruent,148,200,2,108,19.25,40.56,0.02,0.64,108,1657,Correct
4F4K_incongruent,148,201,1,115,61.34,85.55,0.07,1.34,115,1134,Correct
4F4K_incongruent,148,202,1,115,51.55,63.04,0.06,0.99,115,2843,Correct
4F4K_incongruent,148,203,1,107,36.92,26.59,0.04,0.42,115,1706,Incorrect
4F4K_incongruent,148,204,2,97,58.49,40.72,0.07,0.64,97,3313,Correct
4F4K_incongruent,148,205,2,97,68.31,43.2,0.08,0.68,97,1465,Correct
4F4K_incongruent,148,206,1,107,56.05,43.97,0.06,0.69,107,2458,Correct
4F4K_incongruent,148,207,2,108,64.15,85.45,0.07,1.34,97,3339,Incorrect
4F4K_incongruent,148,208,1,115,63.74,81.33,0.07,1.28,115,1577,Correct
4F4K_incongruent,148,209,1,107,56.2,37.24,0.06,0.59,107,1486,Correct
4F4K_incongruent,148,210,2,108,18.51,35.45,0.02,0.56,108,1954,Correct
4F4K_incongruent,148,211,1,115,28.83,48.69,0.03,0.76,115,1355,Correct
4F4K_incongruent,148,212,2,108,60.74,70.3,0.07,1.1,108,3149,Correct
4F4K_incongruent,148,213,2,108,48.98,58.03,0.05,0.91,108,3381,Correct
4F4K_incongruent,148,214,1,107,67.53,41.46,0.08,0.65,107,1514,Correct
4F4K_incongruent,148,215,1,107,49.27,33.63,0.06,0.53,115,8326,Incorrect
4F4K_incongruent,148,216,2,97,83.63,69.07,0.09,1.08,108,1478,Incorrect
4F4K_incongruent,148,217,1,107,78.62,62.51,0.09,0.98,115,1859,Incorrect
4F4K_incongruent,148,218,2,97,66.29,57.11,0.07,0.9,97,4255,Correct
4F4K_incongruent,148,219,1,115,56.27,70.73,0.06,1.11,115,2577,Correct
4F4K_incongruent,148,220,2,108,21.5,33.67,0.02,0.53,108,3499,Correct
4F4K_incongruent,148,221,2,108,46.96,75.47,0.05,1.19,108,1662,Correct
4F4K_incongruent,148,222,2,108,36.43,45.71,0.04,0.72,108,1979,Correct
4F4K_incongruent,148,223,1,115,50.78,57.8,0.06,0.91,107,1990,Incorrect
4F4K_incongruent,148,224,2,97,49.56,25.0,0.06,0.39,108,5853,Incorrect
4F4K_incongruent,148,225,2,108,57.97,80.22,0.06,1.26,108,1446,Correct
4F4K_incongruent,148,226,2,108,39.78,62.62,0.04,0.98,108,9517,Correct
4F4K_incongruent,148,227,1,115,26.3,53.5,0.03,0.84,115,6725,Correct
4F4K_incongruent,148,228,1,115,26.06,48.11,0.03,0.76,115,1516,Correct
4F4K_incongruent,148,229,1,107,70.35,56.47,0.08,0.89,107,3673,Correct
4F4K_incongruent,148,230,2,108,52.17,77.44,0.06,1.22,97,2044,Incorrect
4F4K_incongruent,148,231,2,108,39.67,48.62,0.04,0.76,108,3618,Correct
4F4K_incongruent,148,232,1,107,59.93,52.96,0.07,0.83,107,8240,Correct
4F4K_incongruent,148,233,1,107,52.22,34.28,0.06,0.54,107,1703,Correct
4F4K_incongruent,148,234,2,97,53.17,28.76,0.06,0.45,108,2741,Incorrect
4F4K_incongruent,148,235,1,107,51.75,42.72,0.06,0.67,107,1909,Correct
4F4K_incongruent,148,236,2,97,55.42,48.06,0.06,0.75,97,2379,Correct
4F4K_incongruent,148,237,1,115,39.5,55.6,0.04,0.87,115,2042,Correct
4F4K_incongruent,148,238,2,97,64.49,39.16,0.07,0.62,97,2399,Correct
4F4K_incongruent,148,239,2,108,31.95,55.29,0.04,0.87,108,2801,Correct
4F4K_incongruent,148,240,1,115,45.93,62.72,0.05,0.99,115,2041,Correct
4F4K_incongruent,148,241,2,97,35.62,14.24,0.04,0.22,97,2700,Correct
4F4K_incongruent,148,242,2,108,30.59,45.11,0.03,0.71,108,7037,Correct
4F4K_incongruent,148,243,2,108,46.24,61.38,0.05,0.96,97,6229,Incorrect
4F4K_incongruent,148,244,2,97,83.09,61.08,0.09,0.96,97,5399,Correct
4F4K_incongruent,148,245,2,97,77.6,46.9,0.09,0.74,97,1052,Correct
4F4K_incongruent,148,246,2,108,52.88,77.03,0.06,1.21,108,1383,Correct
4F4K_incongruent,148,247,2,108,43.31,70.82,0.05,1.11,97,4308,Incorrect
4F4K_incongruent,148,248,1,107,46.13,35.21,0.05,0.55,107,1989,Correct
4F4K_incongruent,148,249,1,107,61.57,40.77,0.07,0.64,107,869,Correct
4F4K_incongruent,148,250,1,107,67.78,36.99,0.08,0.58,107,893,Correct
4F4K_incongruent,148,251,1,115,47.22,66.15,0.05,1.04,115,4486,Correct
4F4K_incongruent,148,252,1,115,57.52,75.77,0.06,1.19,115,1083,Correct
4F4K_incongruent,148,253,1,107,54.03,40.76,0.06,0.64,107,883,Correct
4F4K_incongruent,148,254,1,115,15.01,31.78,0.02,0.5,115,2638,Correct
4F4K_incongruent,148,255,2,108,25.34,52.52,0.03,0.82,108,2033,Correct
4F4K_incongruent,148,256,1,115,24.87,50.16,0.03,0.79,115,4530,Correct
4F4K_incongruent,148,257,1,107,42.42,28.21,0.05,0.44,115,5744,Incorrect
4F4K_incongruent,148,258,1,107,72.62,60.48,0.08,0.95,115,1968,Incorrect
4F4K_incongruent,148,259,2,97,68.47,35.88,0.08,0.56,97,2748,Correct
4F4K_incongruent,148,260,2,97,59.12,31.31,0.07,0.49,97,5570,Correct
4F4K_incongruent,148,261,1,115,68.8,89.58,0.08,1.41,115,1802,Correct
4F4K_incongruent,148,262,1,107,37.39,20.11,0.04,0.32,115,3872,Incorrect
4F4K_incongruent,148,263,2,108,35.32,68.21,0.04,1.07,108,2269,Correct
4F4K_incongruent,148,264,1,115,48.35,79.86,0.05,1.25,115,10363,Correct
4F4K_incongruent,148,265,1,115,49.76,69.87,0.06,1.1,115,1736,Correct
4F4K_incongruent,148,266,1,115,43.52,57.55,0.05,0.9,107,2642,Incorrect
4F4K_incongruent,148,267,1,115,57.37,65.88,0.06,1.03,115,5813,Correct
4F4K_incongruent,148,268,1,107,71.84,58.92,0.08,0.93,107,1519,Correct
4F4K_incongruent,148,269,1,107,78.3,52.49,0.09,0.82,107,962,Correct
4F4K_incongruent,148,270,1,115,34.34,47.64,0.04,0.75,115,2124,Correct
4F4K_incongruent,148,271,1,115,63.48,88.04,0.07,1.38,115,1183,Correct
4F4K_incongruent,148,272,1,107,70.1,44.86,0.08,0.7,107,806,Correct
4F4K_incongruent,148,273,1,107,59.44,26.86,0.07,0.42,107,896,Correct
4F4K_incongruent,148,274,2,97,67.68,54.97,0.08,0.86,97,1250,Correct
4F4K_incongruent,148,275,1,115,66.63,80.0,0.07,1.26,115,1036,Correct
4F4K_incongruent,148,276,1,115,34.63,63.74,0.04,1.0,107,4302,Incorrect
4F4K_incongruent,148,277,1,115,17.97,48.62,0.02,0.76,115,5239,Correct
4F4K_incongruent,148,278,2,108,32.54,44.44,0.04,0.7,108,2016,Correct
4F4K_incongruent,148,279,2,97,43.24,15.27,0.05,0.24,97,4574,Correct
4F4K_incongruent,148,280,2,108,68.15,87.59,0.08,1.38,108,4933,Correct
4F4K_incongruent,148,281,1,115,36.02,58.61,0.04,0.92,107,4240,Incorrect
4F4K_incongruent,148,282,2,108,43.78,56.97,0.05,0.89,97,1539,Incorrect
4F4K_incongruent,148,283,1,115,43.11,57.97,0.05,0.91,115,3522,Correct
4F4K_incongruent,148,284,2,108,14.0,36.55,0.02,0.57,108,2693,Correct
4F4K_incongruent,148,285,1,107,61.8,38.29,0.07,0.6,107,3158,Correct
4F4K_incongruent,148,286,1,115,22.07,43.4,0.02,0.68,115,1920,Correct
4F4K_incongruent,148,287,1,115,27.58,53.28,0.03,0.84,115,1787,Correct
4F4K_incongruent,148,288,1,107,88.88,68.52,0.1,1.08,115,1430,Incorrect
4F4K_incongruent,148,289,2,108,13.58,36.53,0.02,0.57,108,5868,Correct
4F4K_incongruent,148,290,1,115,42.94,55.1,0.05,0.87,115,4709,Correct
4F4K_incongruent,148,291,2,97,75.59,60.24,0.08,0.95,97,2034,Correct
4F4K_incongruent,148,292,2,108,30.82,48.95,0.03,0.77,108,1099,Correct
4F4K_incongruent,148,293,2,108,61.53,76.96,0.07,1.21,108,3350,Correct
4F4K_incongruent,148,294,1,115,34.68,49.14,0.04,0.77,107,1973,Incorrect
4F4K_incongruent,148,295,1,115,54.68,81.45,0.06,1.28,115,2442,Correct
4F4K_incongruent,148,296,1,107,65.46,32.5,0.07,0.51,107,6542,Correct
4F4K_incongruent,148,297,2,97,43.57,16.31,0.05,0.26,97,8093,Correct
4F4K_incongruent,148,298,2,97,43.37,35.87,0.05,0.56,108,2807,Incorrect
4F4K_incongruent,148,299,2,108,45.4,53.35,0.05,0.84,97,2068,Incorrect
4F4K_incongruent,148,300,1,115,35.66,63.13,0.04,0.99,107,3608,Incorrect
4F4K_incongruent,148,301,1,115,56.98,68.86,0.06,1.08,115,1133,Correct
4F4K_incongruent,148,302,1,107,64.68,32.94,0.07,0.52,107,773,Correct
4F4K_incongruent,148,303,1,107,36.66,15.25,0.04,0.24,115,2450,Incorrect
4F4K_incongruent,148,304,1,115,55.26,70.52,0.06,1.11,115,1103,Correct
4F4K_incongruent,148,305,2,97,79.49,64.12,0.09,1.01,97,2730,Correct
4F4K_incongruent,148,306,1,107,73.9,58.57,0.08,0.92,115,4610,Incorrect
4F4K_incongruent,148,307,1,115,65.36,77.1,0.07,1.21,115,869,Correct
4F4K_incongruent,148,308,2,108,39.1,55.02,0.04,0.86,108,1558,Correct
4F4K_incongruent,148,309,1,107,70.03,45.38,0.08,0.71,107,1963,Correct
4F4K_incongruent,148,310,1,115,25.6,50.26,0.03,0.79,115,2648,Correct
4F4K_incongruent,148,311,2,97,30.78,15.21,0.03,0.24,97,2752,Correct
4F4K_incongruent,148,312,1,107,49.83,28.89,0.06,0.45,107,2207,Correct
4F4K_incongruent,148,313,2,108,57.25,78.73,0.06,1.24,108,1310,Correct
4F4K_incongruent,148,314,2,108,14.31,37.24,0.02,0.58,108,3183,Correct
4F4K_incongruent,148,315,1,115,33.53,43.31,0.04,0.68,115,7929,Correct
4F4K_incongruent,148,316,1,107,64.79,32.19,0.07,0.51,107,1863,Correct
4F4K_incongruent,148,317,1,107,88.25,67.48,0.1,1.06,107,3232,Correct
4F4K_incongruent,148,318,2,97,77.53,49.37,0.09,0.78,97,2129,Correct
4F4K_incongruent,148,319,1,115,37.4,68.57,0.04,1.08,107,2738,Incorrect
4F4K_incongruent,148,320,1,107,44.45,18.96,0.05,0.3,107,6584,Correct
4F4K_incongruent,148,321,1,115,22.75,54.82,0.03,0.86,115,2564,Correct
4F4K_incongruent,148,322,1,115,19.43,37.17,0.02,0.58,115,2323,Correct
4F4K_incongruent,148,323,1,107,51.81,36.18,0.06,0.57,107,6167,Correct
4F4K_incongruent,148,324,2,97,77.11,56.86,0.09,0.89,97,1862,Correct
4F4K_incongruent,148,325,2,108,42.89,68.57,0.05,1.08,108,2500,Correct
4F4K_incongruent,148,326,2,108,24.21,50.8,0.03,0.8,108,2760,Correct
4F4K_incongruent,148,327,2,97,49.06,38.98,0.05,0.61,97,4221,Correct
4F4K_incongruent,148,328,2,97,57.04,43.83,0.06,0.69,97,938,Correct
4F4K_incongruent,148,329,1,107,53.78,24.32,0.06,0.38,107,1353,Correct
4F4K_incongruent,148,330,1,107,63.28,33.13,0.07,0.52,107,999,Correct
4F4K_incongruent,148,331,2,97,69.37,42.85,0.08,0.67,97,525,Correct
4F4K_incongruent,148,332,1,107,47.45,31.46,0.05,0.49,107,11906,Correct
4F4K_incongruent,148,333,1,107,47.91,36.23,0.05,0.57,107,771,Correct
4F4K_incongruent,148,334,2,97,46.31,24.63,0.05,0.39,97,1606,Correct
4F4K_incongruent,148,335,2,108,67.04,84.31,0.08,1.32,108,1761,Correct
4F4K_incongruent,148,336,2,108,12.48,31.1,0.01,0.49,108,2475,Correct
4F4K_incongruent,148,337,2,97,78.02,48.5,0.09,0.76,97,1731,Correct
4F4K_incongruent,148,338,2,108,37.49,45.71,0.04,0.72,97,2370,Incorrect
4F4K_incongruent,148,339,2,97,36.02,16.56,0.04,0.26,97,1790,Correct
4F4K_incongruent,148,340,2,108,43.61,52.82,0.05,0.83,108,2943,Correct
4F4K_incongruent,148,341,2,97,41.26,21.49,0.05,0.34,97,2199,Correct
4F4K_incongruent,148,342,2,97,45.14,32.9,0.05,0.52,108,1491,Incorrect
4F4K_incongruent,148,343,2,108,30.46,49.7,0.03,0.78,108,1491,Correct
4F4K_incongruent,148,344,1,115,28.45,55.26,0.03,0.87,115,6816,Correct
4F4K_incongruent,148,345,2,97,49.43,22.44,0.06,0.35,108,3770,Incorrect
4F4K_incongruent,148,346,1,115,45.78,62.44,0.05,0.98,115,1753,Correct
4F4K_incongruent,148,347,1,115,55.03,64.46,0.06,1.01,115,1512,Correct
4F4K_incongruent,148,348,2,108,44.09,51.27,0.05,0.81,97,1539,Incorrect
4F4K_incongruent,148,349,1,107,36.81,13.01,0.04,0.2,115,2028,Incorrect
4F4K_incongruent,148,350,1,107,74.88,45.42,0.08,0.71,107,1320,Correct
4F4K_incongruent,148,351,1,107,74.14,62.0,0.08,0.97,115,872,Incorrect
4F4K_incongruent,148,352,2,108,47.25,75.24,0.05,1.18,108,2945,Correct
4F4K_incongruent,148,353,1,107,43.44,15.66,0.05,0.25,115,1668,Incorrect
4F4K_incongruent,148,354,1,115,57.03,73.5,0.06,1.15,115,982,Correct
4F4K_incongruent,148,355,1,107,56.4,49.57,0.06,0.78,107,1329,Correct
4F4K_incongruent,148,356,1,115,37.56,63.96,0.04,1.0,107,9836,Incorrect
4F4K_incongruent,148,357,2,97,83.89,67.23,0.09,1.06,108,2193,Incorrect
4F4K_incongruent,148,358,2,97,73.49,57.47,0.08,0.9,97,1369,Correct
4F4K_incongruent,148,359,1,115,48.49,79.89,0.05,1.25,115,2332,Correct
4F4K_incongruent,148,360,2,97,66.24,33.71,0.07,0.53,108,2315,Incorrect
4F4K_incongruent,148,361,1,107,55.02,29.49,0.06,0.46,107,1396,Correct
4F4K_incongruent,148,362,2,108,24.77,44.05,0.03,0.69,108,2896,Correct
4F4K_incongruent,148,363,2,97,32.39,18.44,0.04,0.29,108,3326,Incorrect
4F4K_incongruent,148,364,1,115,29.53,46.84,0.03,0.74,115,3332,Correct
4F4K_incongruent,148,365,2,108,60.81,71.2,0.07,1.12,108,1415,Correct
4F4K_incongruent,148,366,1,115,59.62,86.38,0.07,1.36,115,3160,Correct
4F4K_incongruent,148,367,2,97,78.49,64.35,0.09,1.01,108,1105,Incorrect
4F4K_incongruent,148,368,2,97,45.77,29.24,0.05,0.46,108,3158,Incorrect
4F4K_incongruent,148,369,1,107,45.21,21.84,0.05,0.34,107,5695,Correct
4F4K_incongruent,148,370,1,107,58.72,47.14,0.07,0.74,107,1595,Correct
4F4K_incongruent,148,371,1,107,65.08,53.47,0.07,0.84,107,2873,Correct
4F4K_incongruent,148,372,2,108,58.63,84.88,0.07,1.33,108,2599,Correct
4F4K_incongruent,148,373,2,108,25.69,41.6,0.03,0.65,108,2007,Correct
4F4K_incongruent,148,374,2,108,65.57,89.16,0.07,1.4,108,987,Correct
4F4K_incongruent,148,375,1,107,54.08,47.38,0.06,0.74,107,1264,Correct
4F4K_incongruent,148,376,1,115,20.61,41.86,0.02,0.66,115,5159,Correct
4F4K_incongruent,148,377,2,97,58.83,39.11,0.07,0.61,97,1046,Correct
4F4K_incongruent,148,378,1,107,60.66,53.38,0.07,0.84,115,2377,Incorrect
4F4K_incongruent,148,379,1,115,41.09,70.78,0.05,1.11,115,1783,Correct
4F4K_incongruent,148,380,2,97,37.34,13.17,0.04,0.21,108,2087,Incorrect
4F4K_incongruent,148,381,1,115,58.84,82.53,0.07,1.3,115,2418,Correct
4F4K_incongruent,148,382,2,97,77.29,57.38,0.09,0.9,97,1671,Correct
4F4K_incongruent,148,383,1,115,26.91,49.17,0.03,0.77,115,2642,Correct
4F4K_incongruent,148,384,1,115,32.72,48.43,0.04,0.76,115,910,Correct
4F4K_incongruent,148,385,2,97,84.71,59.25,0.09,0.93,97,3224,Correct
4F4K_incongruent,148,386,1,107,67.78,47.43,0.08,0.75,115,1253,Incorrect
4F4K_incongruent,148,387,1,115,54.62,67.7,0.06,1.06,115,1339,Correct
4F4K_incongruent,148,388,2,97,57.68,36.57,0.06,0.57,97,4207,Correct
4F4K_incongruent,148,389,2,108,39.44,48.87,0.04,0.77,108,2314,Correct
4F4K_incongruent,148,390,1,115,40.1,63.24,0.04,0.99,115,1749,Correct
4F4K_incongruent,148,391,1,115,46.31,72.07,0.05,1.13,115,988,Correct
4F4K_incongruent,148,392,1,107,49.77,35.95,0.06,0.56,107,904,Correct
4F4K_incongruent,148,393,2,108,57.47,66.77,0.06,1.05,108,2026,Correct
4F4K_incongruent,148,394,2,108,56.95,64.71,0.06,1.02,108,863,Correct
4F4K_incongruent,148,395,1,107,36.69,24.93,0.04,0.39,115,4682,Incorrect
4F4K_incongruent,148,396,2,97,59.91,46.91,0.07,0.74,97,1110,Correct
4F4K_incongruent,148,397,2,108,42.1,71.51,0.05,1.12,108,1236,Correct
4F4K_incongruent,148,398,1,107,66.24,56.02,0.07,0.88,107,2441,Correct
