condition,subject,trial,sub_task,cat,x,y,xt,yt,resp,rt,fb
4F4K_incongruent,24,0,1,107,88.33,69.79,0.1,1.1,107,1284,Correct
4F4K_incongruent,24,1,2,97,48.03,25.07,0.05,0.39,97,823,Correct
4F4K_incongruent,24,2,2,108,24.66,54.2,0.03,0.85,97,667,Incorrect
4F4K_incongruent,24,3,1,115,37.55,58.83,0.04,0.92,107,419,Incorrect
4F4K_incongruent,24,4,2,108,62.42,81.11,0.07,1.27,97,634,Incorrect
4F4K_incongruent,24,5,2,108,26.02,43.78,0.03,0.69,97,702,Incorrect
4F4K_incongruent,24,6,1,115,19.9,39.85,0.02,0.63,107,729,Incorrect
4F4K_incongruent,24,7,1,107,83.1,61.34,0.09,0.96,115,1333,Incorrect
4F4K_incongruent,24,8,1,107,86.44,59.04,0.1,0.93,107,693,Correct
4F4K_incongruent,24,9,2,108,59.0,86.52,0.07,1.36,97,624,Incorrect
4F4K_incongruent,24,10,1,115,45.53,64.18,0.05,1.01,107,1624,Incorrect
4F4K_incongruent,24,11,2,97,68.52,51.12,0.08,0.8,108,833,Incorrect
4F4K_incongruent,24,12,2,97,59.65,33.38,0.07,0.52,97,644,Correct
4F4K_incongruent,24,13,2,108,13.28,36.01,0.01,0.57,97,546,Incorrect
4F4K_incongruent,24,14,1,107,34.79,22.21,0.04,0.35,107,1030,Correct
4F4K_incongruent,24,15,2,108,36.88,55.5,0.04,0.87,108,1033,Correct
4F4K_incongruent,24,16,1,107,51.11,27.21,0.06,0.43,107,1007,Correct
4F4K_incongruent,24,17,2,97,69.84,52.04,0.08,0.82,108,1147,Incorrect
4F4K_incongruent,24,18,2,97,74.73,45.6,0.08,0.72,97,794,Correct
4F4K_incongruent,24,19,2,108,12.24,39.38,0.01,0.62,108,775,Correct
4F4K_incongruent,24,20,2,108,17.25,41.47,0.02,0.65,108,751,Correct
4F4K_incongruent,24,21,2,97,60.3,28.56,0.07,0.45,108,499,Incorrect
4F4K_incongruent,24,22,2,97,72.5,40.44,0.08,0.64,97,958,Correct
4F4K_incongruent,24,23,1,107,51.98,30.96,0.06,0.49,107,656,Correct
4F4K_incongruent,24,24,1,107,62.16,46.12,0.07,0.72,107,583,Correct
4F4K_incongruent,24,25,2,108,67.14,81.74,0.08,1.28,97,1549,Incorrect
4F4K_incongruent,24,26,2,97,53.62,32.02,0.06,0.5,108,451,Incorrect
4F4K_incongruent,24,27,2,108,47.41,58.31,0.05,0.92,97,654,Incorrect
4F4K_incongruent,24,28,2,108,60.19,74.59,0.07,1.17,108,608,Correct
4F4K_incongruent,24,29,1,107,36.7,18.08,0.04,0.28,115,711,Incorrect
4F4K_incongruent,24,30,2,97,57.74,33.16,0.06,0.52,108,1320,Incorrect
4F4K_incongruent,24,31,1,107,43.75,26.33,0.05,0.41,107,829,Correct
4F4K_incongruent,24,32,1,107,83.31,68.71,0.09,1.08,107,1201,Correct
4F4K_incongruent,24,33,2,97,60.29,33.69,0.07,0.53,97,936,Correct
4F4K_incongruent,24,34,1,115,41.99,61.33,0.05,0.96,107,1419,Incorrect
4F4K_incongruent,24,35,2,97,47.53,17.92,0.05,0.28,108,761,Incorrect
4F4K_incongruent,24,36,2,97,40.13,14.06,0.04,0.22,97,1201,Correct
4F4K_incongruent,24,37,1,115,14.84,33.58,0.02,0.53,107,687,Incorrect
4F4K_incongruent,24,38,1,107,70.68,43.89,0.08,0.69,115,537,Incorrect
4F4K_incongruent,24,39,2,97,68.56,36.87,0.08,0.58,108,866,Incorrect
4F4K_incongruent,24,40,1,107,61.96,29.31,0.07,0.46,115,1935,Incorrect
4F4K_incongruent,24,41,1,107,84.4,66.24,0.09,1.04,115,620,Incorrect
4F4K_incongruent,24,42,2,97,75.57,51.63,0.08,0.81,108,661,Incorrect
4F4K_incongruent,24,43,1,115,30.17,49.51,0.03,0.78,107,756,Incorrect
4F4K_incongruent,24,44,1,115,17.59,38.09,0.02,0.6,115,1269,Correct
4F4K_incongruent,24,45,2,108,61.99,85.23,0.07,1.34,108,996,Correct
4F4K_incongruent,24,46,1,115,46.15,69.97,0.05,1.1,115,1077,Correct
4F4K_incongruent,24,47,2,97,36.6,17.75,0.04,0.28,97,627,Correct
4F4K_incongruent,24,48,1,115,17.75,33.42,0.02,0.52,115,705,Correct
4F4K_incongruent,24,49,2,108,54.64,63.28,0.06,0.99,97,526,Incorrect
4F4K_incongruent,24,50,1,115,19.05,48.54,0.02,0.76,115,532,Correct
4F4K_incongruent,24,51,2,108,34.86,52.87,0.04,0.83,108,412,Correct
4F4K_incongruent,24,52,1,115,54.99,81.1,0.06,1.27,115,1000,Correct
4F4K_incongruent,24,53,2,97,56.26,47.9,0.06,0.75,108,622,Incorrect
4F4K_incongruent,24,54,2,97,84.4,54.99,0.09,0.86,97,679,Correct
4F4K_incongruent,24,55,2,108,40.59,57.13,0.05,0.9,97,1309,Incorrect
4F4K_incongruent,24,56,1,115,22.68,40.35,0.03,0.63,107,708,Incorrect
4F4K_incongruent,24,57,1,115,47.04,64.93,0.05,1.02,115,1035,Correct
4F4K_incongruent,24,58,2,108,33.79,45.5,0.04,0.71,108,1824,Correct
4F4K_incongruent,24,59,1,107,58.02,28.82,0.06,0.45,115,810,Incorrect
4F4K_incongruent,24,60,1,115,61.17,87.06,0.07,1.37,115,1739,Correct
4F4K_incongruent,24,61,2,108,29.15,42.95,0.03,0.67,108,968,Correct
4F4K_incongruent,24,62,1,107,85.29,66.46,0.1,1.04,115,1357,Incorrect
4F4K_incongruent,24,63,1,115,66.83,83.2,0.07,1.31,107,1066,Incorrect
4F4K_incongruent,24,64,2,108,64.95,77.99,0.07,1.23,108,1102,Correct
4F4K_incongruent,24,65,2,108,46.15,63.44,0.05,1.0,97,1658,Incorrect
4F4K_incongruent,24,66,2,108,61.88,84.86,0.07,1.33,108,1559,Correct
4F4K_incongruent,24,67,1,107,53.33,27.63,0.06,0.43,115,1952,Incorrect
4F4K_incongruent,24,68,2,108,26.03,46.38,0.03,0.73,108,1562,Correct
4F4K_incongruent,24,69,1,107,77.58,54.42,0.09,0.85,107,1187,Correct
4F4K_incongruent,24,70,1,107,38.69,25.89,0.04,0.41,107,754,Correct
4F4K_incongruent,24,71,2,97,71.32,60.97,0.08,0.96,108,668,Incorrect
4F4K_incongruent,24,72,2,108,64.35,77.28,0.07,1.21,97,1499,Incorrect
4F4K_incongruent,24,73,1,107,65.28,37.77,0.07,0.59,107,1268,Correct
4F4K_incongruent,24,74,1,115,47.77,70.37,0.05,1.11,107,614,Incorrect
4F4K_incongruent,24,75,1,107,61.7,53.25,0.07,0.84,115,584,Incorrect
4F4K_incongruent,24,76,2,97,65.02,33.18,0.07,0.52,108,797,Incorrect
4F4K_incongruent,24,77,1,115,54.04,67.23,0.06,1.06,115,747,Correct
4F4K_incongruent,24,78,2,97,88.32,62.29,0.1,0.98,108,655,Incorrect
4F4K_incongruent,24,79,2,108,49.06,55.73,0.05,0.88,97,1976,Incorrect
4F4K_incongruent,24,80,1,115,22.06,53.48,0.02,0.84,107,1344,Incorrect
4F4K_incongruent,24,81,1,115,18.76,31.9,0.02,0.5,115,539,Correct
4F4K_incongruent,24,82,2,108,47.2,56.85,0.05,0.89,108,800,Correct
4F4K_incongruent,24,83,1,115,31.92,60.43,0.04,0.95,115,679,Correct
4F4K_incongruent,24,84,1,115,63.4,85.73,0.07,1.35,115,829,Correct
4F4K_incongruent,24,85,1,107,40.69,31.05,0.05,0.49,115,731,Incorrect
4F4K_incongruent,24,86,2,97,79.69,51.45,0.09,0.81,108,888,Incorrect
4F4K_incongruent,24,87,1,115,34.65,65.59,0.04,1.03,115,978,Correct
4F4K_incongruent,24,88,1,107,70.45,57.21,0.08,0.9,115,627,Incorrect
4F4K_incongruent,24,89,2,108,31.46,41.44,0.04,0.65,108,834,Correct
4F4K_incongruent,24,90,1,115,28.41,40.76,0.03,0.64,107,1660,Incorrect
4F4K_incongruent,24,91,2,97,76.1,55.55,0.09,0.87,108,827,Incorrect
4F4K_incongruent,24,92,1,115,19.19,32.71,0.02,0.51,115,381,Correct
4F4K_incongruent,24,93,1,107,75.33,50.61,0.08,0.8,107,766,Correct
4F4K_incongruent,24,94,2,108,33.25,65.41,0.04,1.03,97,605,Incorrect
4F4K_incongruent,24,95,2,97,49.02,30.76,0.05,0.48,97,837,Correct
4F4K_incongruent,24,96,2,108,30.9,50.41,0.03,0.79,108,686,Correct
4F4K_incongruent,24,97,2,108,42.96,60.07,0.05,0.94,108,829,Correct
4F4K_incongruent,24,98,1,107,48.93,25.7,0.05,0.4,115,767,Incorrect
4F4K_incongruent,24,99,1,115,33.66,65.62,0.04,1.03,107,556,Incorrect
4F4K_incongruent,24,100,1,115,45.47,74.78,0.05,1.17,107,966,Incorrect
4F4K_incongruent,24,101,1,107,74.54,43.68,0.08,0.69,107,643,Correct
4F4K_incongruent,24,102,2,108,29.99,38.71,0.03,0.61,108,777,Correct
4F4K_incongruent,24,103,2,97,47.81,24.57,0.05,0.39,108,833,Incorrect
4F4K_incongruent,24,104,2,97,48.59,33.98,0.05,0.53,97,483,Correct
4F4K_incongruent,24,105,1,115,59.22,73.13,0.07,1.15,107,630,Incorrect
4F4K_incongruent,24,106,1,107,37.14,12.19,0.04,0.19,115,721,Incorrect
4F4K_incongruent,24,107,2,108,61.22,70.48,0.07,1.11,108,968,Correct
4F4K_incongruent,24,108,2,108,33.44,48.36,0.04,0.76,108,2018,Correct
4F4K_incongruent,24,109,1,107,79.55,66.88,0.09,1.05,115,827,Incorrect
4F4K_incongruent,24,110,2,97,31.94,12.93,0.04,0.2,108,1386,Incorrect
4F4K_incongruent,24,111,2,97,89.79,66.4,0.1,1.04,97,1388,Correct
4F4K_incongruent,24,112,2,108,36.52,69.4,0.04,1.09,108,1278,Correct
4F4K_incongruent,24,113,1,115,36.9,68.71,0.04,1.08,115,416,Correct
4F4K_incongruent,24,114,1,115,27.17,38.23,0.03,0.6,115,771,Correct
4F4K_incongruent,24,115,2,97,69.64,42.37,0.08,0.67,108,799,Incorrect
4F4K_incongruent,24,116,1,107,60.56,28.74,0.07,0.45,107,765,Correct
4F4K_incongruent,24,117,2,97,42.45,16.56,0.05,0.26,108,631,Incorrect
4F4K_incongruent,24,118,1,107,72.56,49.92,0.08,0.78,107,774,Correct
4F4K_incongruent,24,119,1,115,44.55,61.54,0.05,0.97,115,787,Correct
4F4K_incongruent,24,120,2,97,71.84,45.14,0.08,0.71,97,466,Correct
4F4K_incongruent,24,121,2,108,33.04,64.17,0.04,1.01,108,607,Correct
4F4K_incongruent,24,122,1,107,49.76,26.68,0.06,0.42,115,667,Incorrect
4F4K_incongruent,24,123,1,107,44.99,32.26,0.05,0.51,107,1122,Correct
4F4K_incongruent,24,124,1,115,54.47,75.42,0.06,1.18,107,1202,Incorrect
4F4K_incongruent,24,125,1,107,87.5,68.59,0.1,1.08,115,2411,Correct
4F4K_incongruent,24,126,1,115,53.27,75.06,0.06,1.18,115,1217,Correct
4F4K_incongruent,24,127,1,107,68.66,53.29,0.08,0.84,107,701,Correct
4F4K_incongruent,24,128,2,97,50.36,40.16,0.06,0.63,97,1442,Correct
4F4K_incongruent,24,129,2,97,45.36,35.23,0.05,0.55,97,649,Correct
4F4K_incongruent,24,130,1,107,61.63,36.79,0.07,0.58,107,624,Correct
4F4K_incongruent,24,131,2,108,23.56,37.72,0.03,0.59,108,609,Correct
4F4K_incongruent,24,132,2,108,19.16,40.03,0.02,0.63,108,466,Correct
4F4K_incongruent,24,133,2,108,55.87,73.67,0.06,1.16,97,757,Incorrect
4F4K_incongruent,24,134,1,115,41.06,71.75,0.05,1.13,115,1028,Correct
4F4K_incongruent,24,135,2,108,21.91,38.14,0.02,0.6,108,703,Correct
4F4K_incongruent,24,136,1,107,38.67,13.64,0.04,0.21,107,1461,Correct
4F4K_incongruent,24,137,1,115,51.28,61.61,0.06,0.97,108,1205,Incorrect
4F4K_incongruent,24,138,2,108,50.47,63.29,0.06,0.99,108,985,Correct
4F4K_incongruent,24,139,1,107,59.22,50.27,0.07,0.79,107,933,Correct
4F4K_incongruent,24,140,1,107,70.64,48.57,0.08,0.76,107,751,Correct
4F4K_incongruent,24,141,1,115,48.95,68.62,0.05,1.08,115,1184,Correct
4F4K_incongruent,24,142,1,115,31.75,52.32,0.04,0.82,115,586,Correct
4F4K_incongruent,24,143,2,108,57.77,75.33,0.06,1.18,108,733,Correct
4F4K_incongruent,24,144,1,115,63.9,89.14,0.07,1.4,115,1627,Correct
4F4K_incongruent,24,145,2,97,44.23,16.34,0.05,0.26,108,965,Incorrect
4F4K_incongruent,24,146,1,107,37.7,15.79,0.04,0.25,115,2379,Incorrect
4F4K_incongruent,24,147,2,97,38.38,15.56,0.04,0.24,108,1039,Incorrect
4F4K_incongruent,24,148,2,97,62.15,46.65,0.07,0.73,108,860,Incorrect
4F4K_incongruent,24,149,2,108,42.39,66.14,0.05,1.04,108,1179,Correct
4F4K_incongruent,24,150,2,108,32.37,48.67,0.04,0.76,108,701,Correct
4F4K_incongruent,24,151,2,108,58.72,85.93,0.07,1.35,97,873,Incorrect
4F4K_incongruent,24,152,2,108,41.52,61.01,0.05,0.96,108,1509,Correct
4F4K_incongruent,24,153,1,115,41.19,55.14,0.05,0.87,115,773,Correct
4F4K_incongruent,24,154,2,108,22.17,38.21,0.02,0.6,97,1432,Incorrect
4F4K_incongruent,24,155,2,108,60.11,79.91,0.07,1.26,108,1092,Correct
4F4K_incongruent,24,156,2,108,12.79,37.01,0.01,0.58,108,1407,Correct
4F4K_incongruent,24,157,2,97,40.45,20.84,0.05,0.33,108,636,Incorrect
4F4K_incongruent,24,158,1,107,64.7,36.67,0.07,0.58,115,2072,Incorrect
4F4K_incongruent,24,159,2,108,49.16,72.74,0.06,1.14,108,925,Correct
4F4K_incongruent,24,160,2,108,25.2,37.01,0.03,0.58,108,603,Correct
4F4K_incongruent,24,161,2,108,29.58,62.33,0.03,0.98,108,569,Correct
4F4K_incongruent,24,162,1,107,77.12,47.38,0.09,0.74,107,558,Correct
4F4K_incongruent,24,163,2,97,53.61,38.09,0.06,0.6,108,614,Incorrect
4F4K_incongruent,24,164,1,107,39.33,19.17,0.04,0.3,115,1130,Incorrect
4F4K_incongruent,24,165,1,115,33.74,60.22,0.04,0.95,115,680,Correct
4F4K_incongruent,24,166,1,115,14.86,43.58,0.02,0.68,115,560,Correct
4F4K_incongruent,24,167,2,108,30.83,41.94,0.03,0.66,108,633,Correct
4F4K_incongruent,24,168,1,115,37.6,48.48,0.04,0.76,115,831,Correct
4F4K_incongruent,24,169,1,115,66.18,77.62,0.07,1.22,107,548,Incorrect
4F4K_incongruent,24,170,1,115,37.71,47.04,0.04,0.74,115,565,Correct
4F4K_incongruent,24,171,2,97,66.51,45.96,0.07,0.72,97,685,Correct
4F4K_incongruent,24,172,2,108,41.31,67.41,0.05,1.06,108,704,Correct
4F4K_incongruent,24,173,1,115,24.11,46.09,0.03,0.72,115,414,Correct
4F4K_incongruent,24,174,1,115,35.83,46.6,0.04,0.73,115,629,Correct
4F4K_incongruent,24,175,2,97,58.74,28.73,0.07,0.45,97,727,Correct
4F4K_incongruent,24,176,1,107,44.96,36.49,0.05,0.57,115,793,Incorrect
4F4K_incongruent,24,177,1,107,80.46,53.23,0.09,0.84,107,556,Correct
4F4K_incongruent,24,178,2,108,39.96,71.52,0.04,1.12,108,567,Correct
4F4K_incongruent,24,179,1,115,14.25,32.27,0.02,0.51,115,701,Correct
4F4K_incongruent,24,180,2,108,41.35,58.63,0.05,0.92,108,425,Correct
4F4K_incongruent,24,181,2,97,61.52,44.02,0.07,0.69,108,629,Incorrect
4F4K_incongruent,24,182,1,107,60.25,34.05,0.07,0.53,115,1039,Incorrect
4F4K_incongruent,24,183,1,115,34.18,60.5,0.04,0.95,115,478,Correct
4F4K_incongruent,24,184,1,107,78.77,52.42,0.09,0.82,107,661,Correct
4F4K_incongruent,24,185,1,107,62.79,30.54,0.07,0.48,107,1226,Correct
4F4K_incongruent,24,186,2,97,59.18,35.93,0.07,0.56,107,1395,Incorrect
4F4K_incongruent,24,187,1,107,40.67,32.4,0.05,0.51,115,874,Incorrect
4F4K_incongruent,24,188,1,107,84.65,64.97,0.09,1.02,107,2599,Correct
4F4K_incongruent,24,189,2,108,41.87,65.38,0.05,1.03,108,1356,Correct
4F4K_incongruent,24,190,1,107,57.53,49.02,0.06,0.77,115,565,Incorrect
4F4K_incongruent,24,191,1,107,58.71,51.59,0.07,0.81,107,547,Correct
4F4K_incongruent,24,192,1,115,37.32,48.65,0.04,0.76,115,509,Correct
4F4K_incongruent,24,193,1,115,36.34,59.71,0.04,0.94,115,476,Correct
4F4K_incongruent,24,194,1,107,60.89,51.71,0.07,0.81,107,1014,Correct
4F4K_incongruent,24,195,1,115,52.93,71.73,0.06,1.13,115,721,Correct
4F4K_incongruent,24,196,2,108,45.37,76.48,0.05,1.2,108,1116,Correct
4F4K_incongruent,24,197,2,97,72.96,57.24,0.08,0.9,108,654,Incorrect
4F4K_incongruent,24,198,1,107,45.52,25.73,0.05,0.4,107,1093,Correct
4F4K_incongruent,24,199,2,97,35.29,18.86,0.04,0.3,108,991,Incorrect
4F4K_incongruent,24,200,2,108,50.08,75.24,0.06,1.18,97,1429,Incorrect
4F4K_incongruent,24,201,2,108,54.54,71.98,0.06,1.13,97,853,Incorrect
4F4K_incongruent,24,202,2,97,81.44,59.43,0.09,0.93,108,698,Incorrect
4F4K_incongruent,24,203,2,108,49.59,59.77,0.06,0.94,108,1057,Correct
4F4K_incongruent,24,204,2,108,36.35,55.26,0.04,0.87,108,679,Correct
4F4K_incongruent,24,205,2,108,37.41,58.05,0.04,0.91,108,670,Correct
4F4K_incongruent,24,206,1,107,56.18,30.24,0.06,0.47,107,1221,Correct
4F4K_incongruent,24,207,1,107,51.42,31.67,0.06,0.5,107,978,Correct
4F4K_incongruent,24,208,1,115,34.52,59.75,0.04,0.94,115,660,Correct
4F4K_incongruent,24,209,2,108,57.12,84.08,0.06,1.32,108,858,Correct
4F4K_incongruent,24,210,1,115,61.49,85.46,0.07,1.34,107,1073,Incorrect
4F4K_incongruent,24,211,2,97,83.71,53.65,0.09,0.84,108,1428,Incorrect
4F4K_incongruent,24,212,2,108,38.01,48.88,0.04,0.77,108,809,Correct
4F4K_incongruent,24,213,2,97,63.76,40.17,0.07,0.63,97,731,Correct
4F4K_incongruent,24,214,2,97,83.48,68.29,0.09,1.07,97,681,Correct
4F4K_incongruent,24,215,1,115,67.01,84.35,0.07,1.32,107,1109,Incorrect
4F4K_incongruent,24,216,2,97,79.97,66.27,0.09,1.04,97,714,Correct
4F4K_incongruent,24,217,2,97,44.64,32.08,0.05,0.5,108,555,Incorrect
4F4K_incongruent,24,218,2,97,34.88,17.92,0.04,0.28,108,623,Incorrect
4F4K_incongruent,24,219,2,97,59.31,27.63,0.07,0.43,108,634,Incorrect
4F4K_incongruent,24,220,1,107,33.03,18.36,0.04,0.29,115,742,Incorrect
4F4K_incongruent,24,221,2,108,64.66,85.16,0.07,1.34,97,883,Incorrect
4F4K_incongruent,24,222,1,107,55.45,40.84,0.06,0.64,107,2332,Correct
4F4K_incongruent,24,223,1,107,79.36,56.61,0.09,0.89,107,1158,Correct
4F4K_incongruent,24,224,1,115,60.81,80.37,0.07,1.26,115,691,Correct
4F4K_incongruent,24,225,1,115,25.27,52.18,0.03,0.82,115,597,Correct
4F4K_incongruent,24,226,1,115,46.68,54.03,0.05,0.85,115,557,Correct
4F4K_incongruent,24,227,1,107,72.9,61.51,0.08,0.97,115,978,Incorrect
4F4K_incongruent,24,228,1,115,45.47,66.88,0.05,1.05,115,516,Correct
4F4K_incongruent,24,229,2,97,52.2,32.14,0.06,0.5,97,800,Correct
4F4K_incongruent,24,230,2,108,58.34,77.79,0.07,1.22,108,1069,Correct
4F4K_incongruent,24,231,1,107,33.97,20.95,0.04,0.33,115,529,Incorrect
4F4K_incongruent,24,232,2,97,65.81,35.27,0.07,0.55,97,1871,Correct
4F4K_incongruent,24,233,2,97,81.93,57.63,0.09,0.91,97,616,Correct
4F4K_incongruent,24,234,2,108,16.72,40.4,0.02,0.63,108,481,Correct
4F4K_incongruent,24,235,1,107,75.27,51.37,0.08,0.81,107,789,Correct
4F4K_incongruent,24,236,2,108,50.41,58.73,0.06,0.92,108,1312,Correct
4F4K_incongruent,24,237,1,107,51.04,25.77,0.06,0.4,115,806,Incorrect
4F4K_incongruent,24,238,2,108,29.84,56.69,0.03,0.89,108,618,Correct
4F4K_incongruent,24,239,1,115,42.57,54.6,0.05,0.86,115,974,Correct
4F4K_incongruent,24,240,1,107,81.36,66.05,0.09,1.04,107,614,Correct
4F4K_incongruent,24,241,2,97,81.27,60.96,0.09,0.96,108,491,Incorrect
4F4K_incongruent,24,242,2,97,64.68,31.33,0.07,0.49,97,434,Correct
4F4K_incongruent,24,243,1,107,83.38,52.88,0.09,0.83,107,635,Correct
4F4K_incongruent,24,244,1,115,51.07,63.72,0.06,1.0,115,831,Correct
4F4K_incongruent,24,245,2,97,66.05,56.96,0.07,0.89,108,916,Incorrect
4F4K_incongruent,24,246,1,107,43.0,29.68,0.05,0.47,115,605,Incorrect
4F4K_incongruent,24,247,1,107,36.08,13.13,0.04,0.21,107,911,Correct
4F4K_incongruent,24,248,2,97,51.01,32.24,0.06,0.51,97,1926,Correct
4F4K_incongruent,24,249,2,108,24.93,45.49,0.03,0.71,108,725,Correct
4F4K_incongruent,24,250,2,108,30.11,42.02,0.03,0.66,108,645,Correct
4F4K_incongruent,24,251,1,115,49.02,70.38,0.05,1.11,115,1000,Correct
4F4K_incongruent,24,252,1,115,21.07,36.39,0.02,0.57,115,610,Correct
4F4K_incongruent,24,253,1,107,69.6,46.37,0.08,0.73,107,799,Correct
4F4K_incongruent,24,254,1,115,17.61,43.0,0.02,0.68,115,607,Correct
4F4K_incongruent,24,255,2,97,55.96,36.59,0.06,0.57,108,765,Incorrect
4F4K_incongruent,24,256,2,97,57.19,39.56,0.06,0.62,97,779,Correct
4F4K_incongruent,24,257,1,115,29.21,59.51,0.03,0.93,115,943,Correct
4F4K_incongruent,24,258,1,107,50.82,28.4,0.06,0.45,107,934,Correct
4F4K_incongruent,24,259,1,107,56.22,26.51,0.06,0.42,107,743,Correct
4F4K_incongruent,24,260,1,107,77.22,49.43,0.09,0.78,107,1503,Correct
4F4K_incongruent,24,261,2,97,74.54,55.3,0.08,0.87,108,1220,Incorrect
4F4K_incongruent,24,262,2,108,44.24,72.44,0.05,1.14,108,783,Correct
4F4K_incongruent,24,263,2,97,50.33,40.82,0.06,0.64,97,787,Correct
4F4K_incongruent,24,264,1,107,34.7,15.31,0.04,0.24,107,969,Correct
4F4K_incongruent,24,265,1,115,62.61,73.1,0.07,1.15,115,822,Correct
4F4K_incongruent,24,266,2,108,55.09,79.7,0.06,1.25,108,1362,Correct
4F4K_incongruent,24,267,1,107,41.7,27.13,0.05,0.43,107,570,Correct
4F4K_incongruent,24,268,2,108,31.25,60.53,0.03,0.95,108,1917,Correct
4F4K_incongruent,24,269,1,115,22.31,47.93,0.02,0.75,115,2455,Correct
4F4K_incongruent,24,270,2,108,47.78,78.99,0.05,1.24,97,1310,Incorrect
4F4K_incongruent,24,271,2,108,68.07,86.1,0.08,1.35,108,539,Correct
4F4K_incongruent,24,272,2,108,19.9,34.06,0.02,0.54,108,605,Correct
4F4K_incongruent,24,273,2,97,60.59,44.34,0.07,0.7,97,1204,Correct
4F4K_incongruent,24,274,2,108,51.42,65.28,0.06,1.03,97,816,Incorrect
4F4K_incongruent,24,275,1,107,67.48,35.95,0.08,0.56,107,654,Correct
4F4K_incongruent,24,276,1,107,77.08,55.48,0.09,0.87,107,942,Correct
4F4K_incongruent,24,277,2,97,50.39,34.16,0.06,0.54,97,1098,Correct
4F4K_incongruent,24,278,1,115,14.15,32.76,0.02,0.51,115,636,Correct
4F4K_incongruent,24,279,2,97,67.75,45.39,0.08,0.71,97,680,Correct
4F4K_incongruent,24,280,2,108,36.72,51.34,0.04,0.81,108,1103,Correct
4F4K_incongruent,24,281,1,115,40.59,53.44,0.05,0.84,115,1648,Correct
4F4K_incongruent,24,282,1,115,54.55,75.54,0.06,1.19,107,1769,Incorrect
4F4K_incongruent,24,283,1,107,42.91,15.76,0.05,0.25,107,858,Correct
4F4K_incongruent,24,284,1,107,76.09,64.13,0.09,1.01,115,595,Incorrect
4F4K_incongruent,24,285,2,97,31.76,12.26,0.04,0.19,108,711,Incorrect
4F4K_incongruent,24,286,2,97,71.29,41.3,0.08,0.65,97,639,Correct
4F4K_incongruent,24,287,1,115,29.46,59.39,0.03,0.93,115,878,Correct
4F4K_incongruent,24,288,1,115,63.21,82.06,0.07,1.29,115,896,Correct
4F4K_incongruent,24,289,2,108,62.93,89.03,0.07,1.4,108,910,Correct
4F4K_incongruent,24,290,2,97,71.8,51.72,0.08,0.81,97,1062,Correct
4F4K_incongruent,24,291,1,107,64.96,44.57,0.07,0.7,107,2052,Correct
4F4K_incongruent,24,292,2,97,70.8,46.12,0.08,0.72,97,711,Correct
4F4K_incongruent,24,293,1,107,37.01,26.86,0.04,0.42,107,940,Correct
4F4K_incongruent,24,294,2,97,67.38,36.59,0.08,0.57,97,1359,Correct
4F4K_incongruent,24,295,2,97,58.44,38.03,0.07,0.6,97,1044,Correct
4F4K_incongruent,24,296,1,115,61.27,85.0,0.07,1.34,115,691,Correct
4F4K_incongruent,24,297,1,107,85.95,67.67,0.1,1.06,115,661,Incorrect
4F4K_incongruent,24,298,2,97,69.33,46.53,0.08,0.73,97,524,Correct
4F4K_incongruent,24,299,1,115,23.78,45.28,0.03,0.71,115,624,Correct
4F4K_incongruent,24,300,1,115,46.29,52.96,0.05,0.83,115,690,Correct
4F4K_incongruent,24,301,2,97,55.37,24.87,0.06,0.39,97,653,Correct
4F4K_incongruent,24,302,1,115,53.09,73.46,0.06,1.15,115,701,Correct
4F4K_incongruent,24,303,2,97,55.44,39.59,0.06,0.62,97,731,Correct
4F4K_incongruent,24,304,1,115,43.67,68.28,0.05,1.07,115,776,Correct
4F4K_incongruent,24,305,1,115,12.86,30.68,0.01,0.48,115,711,Correct
4F4K_incongruent,24,306,2,97,68.03,37.73,0.08,0.59,97,557,Correct
4F4K_incongruent,24,307,1,115,33.8,61.36,0.04,0.96,115,672,Correct
4F4K_incongruent,24,308,1,115,54.61,76.46,0.06,1.2,115,577,Correct
4F4K_incongruent,24,309,2,97,55.88,32.23,0.06,0.51,108,913,Incorrect
4F4K_incongruent,24,310,1,107,68.53,41.32,0.08,0.65,107,2380,Correct
4F4K_incongruent,24,311,2,97,72.59,42.44,0.08,0.67,97,765,Correct
4F4K_incongruent,24,312,2,97,68.3,51.88,0.08,0.81,97,605,Correct
4F4K_incongruent,24,313,1,107,83.2,60.31,0.09,0.95,115,733,Incorrect
4F4K_incongruent,24,314,2,97,43.1,15.4,0.05,0.24,108,978,Incorrect
4F4K_incongruent,24,315,2,97,47.92,40.0,0.05,0.63,97,844,Correct
4F4K_incongruent,24,316,2,97,55.7,29.25,0.06,0.46,97,496,Correct
4F4K_incongruent,24,317,1,107,58.81,26.69,0.07,0.42,107,745,Correct
4F4K_incongruent,24,318,2,108,44.28,51.37,0.05,0.81,97,981,Incorrect
4F4K_incongruent,24,319,1,115,37.58,54.18,0.04,0.85,115,620,Correct
4F4K_incongruent,24,320,2,97,83.01,68.32,0.09,1.07,108,1051,Incorrect
4F4K_incongruent,24,321,1,115,66.54,87.65,0.07,1.38,115,827,Correct
4F4K_incongruent,24,322,2,108,63.03,72.56,0.07,1.14,97,736,Incorrect
4F4K_incongruent,24,323,2,97,45.87,22.17,0.05,0.35,97,802,Correct
4F4K_incongruent,24,324,1,107,41.95,25.31,0.05,0.4,107,1108,Correct
4F4K_incongruent,24,325,2,108,58.03,85.76,0.06,1.35,108,609,Correct
4F4K_incongruent,24,326,1,115,46.27,60.19,0.05,0.95,107,1230,Incorrect
4F4K_incongruent,24,327,1,107,57.56,29.01,0.06,0.46,107,956,Correct
4F4K_incongruent,24,328,1,115,45.73,75.39,0.05,1.18,115,654,Correct
4F4K_incongruent,24,329,1,107,34.81,13.42,0.04,0.21,107,1192,Correct
4F4K_incongruent,24,330,2,108,49.72,72.1,0.06,1.13,97,1153,Incorrect
4F4K_incongruent,24,331,1,115,34.1,62.98,0.04,0.99,115,828,Correct
4F4K_incongruent,24,332,1,115,50.03,76.58,0.06,1.2,115,649,Correct
4F4K_incongruent,24,333,1,107,52.73,20.85,0.06,0.33,107,489,Correct
4F4K_incongruent,24,334,1,115,26.14,37.71,0.03,0.59,115,1079,Correct
4F4K_incongruent,24,335,1,115,62.11,82.78,0.07,1.3,107,673,Incorrect
4F4K_incongruent,24,336,2,97,69.57,52.76,0.08,0.83,108,1038,Incorrect
4F4K_incongruent,24,337,1,115,62.71,85.56,0.07,1.34,115,500,Correct
4F4K_incongruent,24,338,1,107,68.66,44.75,0.08,0.7,107,1299,Correct
4F4K_incongruent,24,339,2,108,17.83,34.22,0.02,0.54,97,938,Incorrect
4F4K_incongruent,24,340,1,115,51.19,77.38,0.06,1.22,115,889,Correct
4F4K_incongruent,24,341,2,108,20.87,35.91,0.02,0.56,108,1079,Correct
4F4K_incongruent,24,342,2,97,86.3,59.84,0.1,0.94,97,1465,Correct
4F4K_incongruent,24,343,1,115,52.42,75.14,0.06,1.18,107,883,Incorrect
4F4K_incongruent,24,344,1,115,17.29,32.45,0.02,0.51,115,699,Correct
4F4K_incongruent,24,345,1,107,56.17,36.22,0.06,0.57,107,632,Correct
4F4K_incongruent,24,346,2,108,45.14,66.83,0.05,1.05,108,606,Correct
4F4K_incongruent,24,347,2,108,38.47,56.65,0.04,0.89,108,1693,Correct
4F4K_incongruent,24,348,2,108,41.9,54.94,0.05,0.86,108,1672,Correct
4F4K_incongruent,24,349,1,107,64.75,32.26,0.07,0.51,107,593,Correct
4F4K_incongruent,24,350,1,115,45.74,60.69,0.05,0.95,107,1483,Incorrect
4F4K_incongruent,24,351,2,97,55.04,31.75,0.06,0.5,97,979,Correct
4F4K_incongruent,24,352,2,108,17.56,44.04,0.02,0.69,108,845,Correct
4F4K_incongruent,24,353,2,108,42.9,64.28,0.05,1.01,97,1427,Incorrect
4F4K_incongruent,24,354,1,115,18.96,35.11,0.02,0.55,115,662,Correct
4F4K_incongruent,24,355,2,108,30.27,61.31,0.03,0.96,108,828,Correct
4F4K_incongruent,24,356,2,97,45.8,20.62,0.05,0.32,97,1118,Correct
4F4K_incongruent,24,357,1,115,35.22,58.7,0.04,0.92,115,1296,Correct
4F4K_incongruent,24,358,2,97,64.15,49.1,0.07,0.77,97,43336,Correct
4F4K_incongruent,24,359,2,97,66.21,34.27,0.07,0.54,97,2131,Correct
4F4K_incongruent,24,360,2,108,46.76,63.57,0.05,1.0,108,1703,Correct
4F4K_incongruent,24,361,2,97,70.07,60.76,0.08,0.95,97,772,Correct
4F4K_incongruent,24,362,2,97,76.1,65.27,0.09,1.03,97,1558,Correct
4F4K_incongruent,24,363,1,107,76.83,60.95,0.09,0.96,107,1950,Correct
4F4K_incongruent,24,364,2,97,56.8,40.96,0.06,0.64,97,2301,Correct
4F4K_incongruent,24,365,1,115,21.33,51.9,0.02,0.82,115,718,Correct
4F4K_incongruent,24,366,2,108,44.68,57.36,0.05,0.9,108,1042,Correct
4F4K_incongruent,24,367,2,108,28.59,42.37,0.03,0.67,108,1460,Correct
4F4K_incongruent,24,368,1,115,59.5,77.53,0.07,1.22,107,674,Incorrect
4F4K_incongruent,24,369,2,97,59.47,39.78,0.07,0.62,97,1013,Correct
4F4K_incongruent,24,370,2,97,60.12,31.09,0.07,0.49,97,1080,Correct
4F4K_incongruent,24,371,2,97,82.85,61.2,0.09,0.96,97,910,Correct
4F4K_incongruent,24,372,2,108,51.6,78.64,0.06,1.24,97,1110,Incorrect
4F4K_incongruent,24,373,2,108,49.7,71.01,0.06,1.12,108,1931,Correct
4F4K_incongruent,24,374,1,115,43.7,59.13,0.05,0.93,115,2652,Correct
4F4K_incongruent,24,375,2,97,34.01,16.94,0.04,0.27,97,1945,Correct
4F4K_incongruent,24,376,1,107,50.51,30.0,0.06,0.47,107,1012,Correct
4F4K_incongruent,24,377,2,97,72.33,58.58,0.08,0.92,97,1309,Correct
4F4K_incongruent,24,378,2,108,34.74,48.97,0.04,0.77,108,1881,Correct
4F4K_incongruent,24,379,1,107,60.94,40.96,0.07,0.64,107,884,Correct
4F4K_incongruent,24,380,2,108,19.95,44.58,0.02,0.7,108,665,Correct
4F4K_incongruent,24,381,2,97,66.43,34.2,0.07,0.54,97,2684,Correct
4F4K_incongruent,24,382,2,108,12.04,37.0,0.01,0.58,108,1220,Correct
4F4K_incongruent,24,383,2,97,62.0,39.97,0.07,0.63,97,926,Correct
4F4K_incongruent,24,384,2,97,47.7,34.35,0.05,0.54,97,951,Correct
4F4K_incongruent,24,385,1,115,17.52,44.79,0.02,0.7,115,567,Correct
4F4K_incongruent,24,386,1,107,45.52,33.72,0.05,0.53,107,2801,Correct
4F4K_incongruent,24,387,1,115,26.04,45.86,0.03,0.72,115,702,Correct
4F4K_incongruent,24,388,2,97,40.86,27.67,0.05,0.43,97,1578,Correct
4F4K_incongruent,24,389,2,97,44.37,18.82,0.05,0.3,97,882,Correct
4F4K_incongruent,24,390,1,115,40.31,67.81,0.05,1.07,115,1053,Correct
4F4K_incongruent,24,391,1,107,60.4,31.89,0.07,0.5,107,689,Correct
4F4K_incongruent,24,392,1,115,54.34,62.31,0.06,0.98,115,1437,Correct
4F4K_incongruent,24,393,2,97,47.54,19.33,0.05,0.3,97,1134,Correct
4F4K_incongruent,24,394,2,108,53.3,78.19,0.06,1.23,108,1522,Correct
4F4K_incongruent,24,395,1,107,31.36,14.07,0.04,0.22,115,1369,Incorrect
4F4K_incongruent,24,396,1,115,43.57,70.26,0.05,1.1,115,926,Correct
4F4K_incongruent,24,397,2,97,48.86,31.12,0.05,0.49,97,949,Correct
4F4K_incongruent,24,398,1,107,41.94,13.36,0.05,0.21,107,835,Correct
