condition,subject,trial,sub_task,cat,x,y,xt,yt,resp,rt,fb
4F4K_congruent,79,0,1,107,33.4,12.01,0.04,0.19,107,24431,Correct
4F4K_congruent,79,1,1,115,19.64,44.13,0.02,0.69,107,3114,Incorrect
4F4K_congruent,79,2,1,115,55.56,78.38,0.06,1.23,115,2085,Correct
4F4K_congruent,79,3,1,115,33.4,62.79,0.04,0.99,107,3989,Incorrect
4F4K_congruent,79,4,1,107,62.32,51.13,0.07,0.8,115,3201,Incorrect
4F4K_congruent,79,5,1,107,38.99,16.1,0.04,0.25,107,1182,Correct
4F4K_congruent,79,6,2,108,58.41,30.58,0.07,0.48,97,1641,Incorrect
4F4K_congruent,79,7,2,97,49.28,66.48,0.06,1.04,97,1489,Correct
4F4K_congruent,79,8,2,97,44.25,54.03,0.05,0.85,108,2327,Incorrect
4F4K_congruent,79,9,2,97,39.55,62.23,0.04,0.98,97,1684,Correct
4F4K_congruent,79,10,1,115,50.59,69.64,0.06,1.09,107,1971,Incorrect
4F4K_congruent,79,11,2,97,41.51,69.09,0.05,1.09,97,1321,Correct
4F4K_congruent,79,12,2,108,46.04,17.89,0.05,0.28,108,1407,Correct
4F4K_congruent,79,13,1,107,65.86,33.54,0.07,0.53,115,1857,Incorrect
4F4K_congruent,79,14,2,108,65.02,35.06,0.07,0.55,97,1606,Incorrect
4F4K_congruent,79,15,2,97,58.78,83.9,0.07,1.32,97,1845,Correct
4F4K_congruent,79,16,1,107,65.17,46.39,0.07,0.73,107,2984,Correct
4F4K_congruent,79,17,1,115,18.96,37.96,0.02,0.6,115,8335,Correct
4F4K_congruent,79,18,1,107,76.37,59.09,0.09,0.93,107,1834,Correct
4F4K_congruent,79,19,1,115,46.35,57.64,0.05,0.91,107,1211,Incorrect
4F4K_congruent,79,20,1,115,54.47,79.24,0.06,1.24,107,1120,Incorrect
4F4K_congruent,79,21,2,97,31.17,60.73,0.03,0.95,108,1324,Incorrect
4F4K_congruent,79,22,2,108,44.81,27.69,0.05,0.43,97,1544,Incorrect
4F4K_congruent,79,23,1,107,63.86,51.23,0.07,0.8,107,4838,Correct
4F4K_congruent,79,24,2,97,46.66,76.6,0.05,1.2,108,1527,Incorrect
4F4K_congruent,79,25,2,108,46.77,19.5,0.05,0.31,97,2701,Incorrect
4F4K_congruent,79,26,1,115,27.66,37.53,0.03,0.59,115,3521,Correct
4F4K_congruent,79,27,1,107,59.92,35.97,0.07,0.57,115,1824,Incorrect
4F4K_congruent,79,28,2,108,69.29,49.82,0.08,0.78,97,1162,Incorrect
4F4K_congruent,79,29,2,108,70.78,55.65,0.08,0.87,108,1566,Correct
4F4K_congruent,79,30,2,108,46.64,34.84,0.05,0.55,108,1845,Correct
4F4K_congruent,79,31,1,115,35.48,58.68,0.04,0.92,115,1469,Correct
4F4K_congruent,79,32,1,115,49.58,60.82,0.06,0.96,107,4464,Incorrect
4F4K_congruent,79,33,1,115,23.57,54.52,0.03,0.86,115,1003,Correct
4F4K_congruent,79,34,2,97,63.77,79.81,0.07,1.25,108,1672,Incorrect
4F4K_congruent,79,35,2,97,55.88,79.78,0.06,1.25,97,1078,Correct
4F4K_congruent,79,36,1,107,83.97,62.06,0.09,0.97,107,1841,Correct
4F4K_congruent,79,37,1,115,55.1,68.46,0.06,1.08,107,3106,Incorrect
4F4K_congruent,79,38,1,115,35.85,52.17,0.04,0.82,115,1793,Correct
4F4K_congruent,79,39,1,115,31.21,40.47,0.03,0.64,115,929,Correct
4F4K_congruent,79,40,1,107,54.19,28.8,0.06,0.45,107,1787,Correct
4F4K_congruent,79,41,2,108,70.33,40.57,0.08,0.64,108,2322,Correct
4F4K_congruent,79,42,1,115,45.91,64.17,0.05,1.01,107,2461,Incorrect
4F4K_congruent,79,43,1,115,43.34,64.31,0.05,1.01,115,867,Correct
4F4K_congruent,79,44,2,108,45.47,29.79,0.05,0.47,97,2478,Incorrect
4F4K_congruent,79,45,2,97,14.02,36.85,0.02,0.58,108,2310,Incorrect
4F4K_congruent,79,46,2,108,52.94,36.99,0.06,0.58,108,1121,Correct
4F4K_congruent,79,47,2,97,57.83,81.94,0.06,1.29,108,1669,Incorrect
4F4K_congruent,79,48,2,108,76.28,64.99,0.09,1.02,97,983,Incorrect
4F4K_congruent,79,49,2,97,40.91,71.11,0.05,1.12,97,1962,Correct
4F4K_congruent,79,50,2,108,77.91,59.64,0.09,0.94,97,2419,Incorrect
4F4K_congruent,79,51,2,108,42.95,14.29,0.05,0.22,108,1846,Correct
4F4K_congruent,79,52,1,107,76.3,48.23,0.09,0.76,107,893,Correct
4F4K_congruent,79,53,2,108,54.16,46.75,0.06,0.73,108,5238,Correct
4F4K_congruent,79,54,2,97,48.81,64.29,0.05,1.01,97,12701,Correct
4F4K_congruent,79,55,1,107,57.18,49.27,0.06,0.77,107,5926,Correct
4F4K_congruent,79,56,1,115,38.78,69.78,0.04,1.1,115,1101,Correct
4F4K_congruent,79,57,1,107,36.3,19.92,0.04,0.31,115,1778,Incorrect
4F4K_congruent,79,58,2,97,50.79,65.26,0.06,1.03,108,2019,Incorrect
4F4K_congruent,79,59,1,115,23.54,48.78,0.03,0.77,115,847,Correct
4F4K_congruent,79,60,2,108,47.98,17.95,0.05,0.28,97,1341,Incorrect
4F4K_congruent,79,61,1,107,87.58,64.54,0.1,1.01,107,2278,Correct
4F4K_congruent,79,62,1,115,64.4,83.13,0.07,1.31,107,1675,Incorrect
4F4K_congruent,79,63,2,108,40.42,32.27,0.05,0.51,108,3362,Correct
4F4K_congruent,79,64,1,107,59.35,51.9,0.07,0.82,107,2529,Correct
4F4K_congruent,79,65,2,97,20.38,36.39,0.02,0.57,108,2219,Incorrect
4F4K_congruent,79,66,2,97,12.46,38.68,0.01,0.61,97,1140,Correct
4F4K_congruent,79,67,2,97,39.39,69.09,0.04,1.09,108,3134,Incorrect
4F4K_congruent,79,68,2,108,83.96,63.95,0.09,1.0,97,1641,Incorrect
4F4K_congruent,79,69,2,97,37.26,52.53,0.04,0.83,97,927,Correct
4F4K_congruent,79,70,1,115,17.73,37.5,0.02,0.59,115,2482,Correct
4F4K_congruent,79,71,2,108,35.76,21.34,0.04,0.34,97,2739,Incorrect
4F4K_congruent,79,72,2,97,59.34,86.74,0.07,1.36,97,2534,Correct
4F4K_congruent,79,73,2,97,59.26,79.74,0.07,1.25,97,640,Correct
4F4K_congruent,79,74,1,115,45.97,72.92,0.05,1.15,107,1288,Incorrect
4F4K_congruent,79,75,1,107,64.88,48.66,0.07,0.76,115,3254,Incorrect
4F4K_congruent,79,76,1,115,24.88,50.93,0.03,0.8,115,1497,Correct
4F4K_congruent,79,77,2,108,76.41,54.91,0.09,0.86,97,1898,Incorrect
4F4K_congruent,79,78,1,107,45.83,27.19,0.05,0.43,107,3332,Correct
4F4K_congruent,79,79,2,108,62.55,34.48,0.07,0.54,108,1304,Correct
4F4K_congruent,79,80,1,107,57.46,43.13,0.06,0.68,107,1767,Correct
4F4K_congruent,79,81,2,97,31.01,49.2,0.03,0.77,97,2244,Correct
4F4K_congruent,79,82,1,115,40.11,54.21,0.04,0.85,107,3473,Incorrect
4F4K_congruent,79,83,2,108,51.4,39.0,0.06,0.61,97,1791,Incorrect
4F4K_congruent,79,84,1,107,38.71,24.41,0.04,0.38,107,1051,Correct
4F4K_congruent,79,85,2,108,61.26,30.42,0.07,0.48,108,1204,Correct
4F4K_congruent,79,86,2,108,55.61,32.89,0.06,0.52,108,680,Correct
4F4K_congruent,79,87,1,115,54.63,63.79,0.06,1.0,107,1925,Incorrect
4F4K_congruent,79,88,1,115,36.99,56.41,0.04,0.89,115,953,Correct
4F4K_congruent,79,89,1,107,49.19,32.28,0.06,0.51,107,1836,Correct
4F4K_congruent,79,90,1,107,57.42,38.47,0.06,0.6,107,2012,Correct
4F4K_congruent,79,91,1,115,34.99,55.95,0.04,0.88,115,1016,Correct
4F4K_congruent,79,92,2,97,54.57,62.22,0.06,0.98,97,832,Correct
4F4K_congruent,79,93,2,97,39.33,66.97,0.04,1.05,97,768,Correct
4F4K_congruent,79,94,2,108,72.28,53.54,0.08,0.84,97,789,Incorrect
4F4K_congruent,79,95,1,107,88.24,67.35,0.1,1.06,107,1683,Correct
4F4K_congruent,79,96,1,107,72.88,52.55,0.08,0.83,107,1633,Correct
4F4K_congruent,79,97,1,107,42.8,24.38,0.05,0.38,115,2587,Incorrect
4F4K_congruent,79,98,2,108,59.45,44.2,0.07,0.69,108,2544,Correct
4F4K_congruent,79,99,1,115,17.4,35.01,0.02,0.55,115,1409,Correct
4F4K_congruent,79,100,1,115,61.02,74.92,0.07,1.18,107,2512,Incorrect
4F4K_congruent,79,101,2,108,70.34,61.33,0.08,0.96,97,1415,Incorrect
4F4K_congruent,79,102,2,108,67.26,50.6,0.08,0.79,108,961,Correct
4F4K_congruent,79,103,1,107,79.03,60.73,0.09,0.95,115,1993,Incorrect
4F4K_congruent,79,104,2,97,22.9,50.75,0.03,0.8,108,1930,Incorrect
4F4K_congruent,79,105,2,97,16.2,31.78,0.02,0.5,97,2118,Correct
4F4K_congruent,79,106,2,97,18.24,47.14,0.02,0.74,97,1086,Correct
4F4K_congruent,79,107,2,108,46.71,18.44,0.05,0.29,108,965,Correct
4F4K_congruent,79,108,2,97,60.4,74.67,0.07,1.17,108,1417,Incorrect
4F4K_congruent,79,109,1,107,49.72,38.04,0.06,0.6,107,3354,Correct
4F4K_congruent,79,110,2,108,42.28,16.15,0.05,0.25,108,6549,Correct
4F4K_congruent,79,111,1,115,48.74,79.45,0.05,1.25,115,1457,Correct
4F4K_congruent,79,112,2,108,49.64,39.38,0.06,0.62,108,1471,Correct
4F4K_congruent,79,113,1,115,35.07,62.33,0.04,0.98,107,1811,Incorrect
4F4K_congruent,79,114,1,107,60.46,43.05,0.07,0.68,107,1170,Correct
4F4K_congruent,79,115,2,108,50.22,30.46,0.06,0.48,108,3342,Correct
4F4K_congruent,79,116,2,108,60.04,29.0,0.07,0.46,108,4925,Correct
4F4K_congruent,79,117,1,107,69.08,58.19,0.08,0.91,107,1016,Correct
4F4K_congruent,79,118,1,115,53.21,70.6,0.06,1.11,107,1205,Incorrect
4F4K_congruent,79,119,2,97,27.14,37.77,0.03,0.59,108,2086,Incorrect
4F4K_congruent,79,120,1,107,47.1,29.59,0.05,0.46,107,1892,Correct
4F4K_congruent,79,121,1,107,54.99,31.88,0.06,0.5,107,1009,Correct
4F4K_congruent,79,122,1,115,17.43,41.26,0.02,0.65,115,1125,Correct
4F4K_congruent,79,123,2,97,50.06,72.36,0.06,1.14,97,2958,Correct
4F4K_congruent,79,124,1,107,43.19,31.33,0.05,0.49,107,1983,Correct
4F4K_congruent,79,125,2,97,25.74,48.01,0.03,0.75,97,1472,Correct
4F4K_congruent,79,126,1,115,24.07,47.67,0.03,0.75,115,938,Correct
4F4K_congruent,79,127,1,115,41.84,68.11,0.05,1.07,107,2106,Incorrect
4F4K_congruent,79,128,1,107,47.27,23.02,0.05,0.36,107,1345,Correct
4F4K_congruent,79,129,2,97,40.22,56.2,0.05,0.88,108,2379,Incorrect
4F4K_congruent,79,130,2,108,57.15,40.89,0.06,0.64,108,850,Correct
4F4K_congruent,79,131,1,107,67.84,53.14,0.08,0.83,107,1335,Correct
4F4K_congruent,79,132,2,108,46.43,21.6,0.05,0.34,108,1073,Correct
4F4K_congruent,79,133,2,97,51.86,71.63,0.06,1.13,97,1152,Correct
4F4K_congruent,79,134,2,97,36.34,67.51,0.04,1.06,97,1825,Correct
4F4K_congruent,79,135,2,108,73.96,49.09,0.08,0.77,108,1633,Correct
4F4K_congruent,79,136,1,115,56.14,78.83,0.06,1.24,115,2489,Correct
4F4K_congruent,79,137,1,107,89.51,67.19,0.1,1.06,107,1478,Correct
4F4K_congruent,79,138,1,107,31.79,10.57,0.04,0.17,115,1412,Incorrect
4F4K_congruent,79,139,2,108,84.09,64.54,0.09,1.01,108,1107,Correct
4F4K_congruent,79,140,1,115,54.84,77.3,0.06,1.21,107,2641,Incorrect
4F4K_congruent,79,141,2,108,59.16,36.17,0.07,0.57,108,1038,Correct
4F4K_congruent,79,142,2,108,89.45,68.02,0.1,1.07,97,718,Incorrect
4F4K_congruent,79,143,2,97,28.95,41.61,0.03,0.65,108,2301,Incorrect
4F4K_congruent,79,144,1,107,74.46,58.33,0.08,0.92,107,1395,Correct
4F4K_congruent,79,145,2,97,36.3,50.25,0.04,0.79,97,2641,Correct
4F4K_congruent,79,146,1,107,72.89,53.43,0.08,0.84,107,1329,Correct
4F4K_congruent,79,147,2,108,83.33,54.29,0.09,0.85,108,998,Correct
4F4K_congruent,79,148,2,97,69.79,85.91,0.08,1.35,108,1155,Incorrect
4F4K_congruent,79,149,2,108,61.36,30.98,0.07,0.49,108,937,Correct
4F4K_congruent,79,150,1,107,66.51,42.31,0.07,0.66,107,1210,Correct
4F4K_congruent,79,151,2,97,51.5,70.94,0.06,1.11,97,3409,Correct
4F4K_congruent,79,152,2,97,12.37,39.82,0.01,0.63,108,2327,Incorrect
4F4K_congruent,79,153,1,115,26.38,46.7,0.03,0.73,115,1918,Correct
4F4K_congruent,79,154,1,107,59.55,42.42,0.07,0.67,107,889,Correct
4F4K_congruent,79,155,1,115,52.95,59.89,0.06,0.94,107,1334,Incorrect
4F4K_congruent,79,156,2,108,34.83,15.27,0.04,0.24,108,3879,Correct
4F4K_congruent,79,157,2,97,42.23,65.35,0.05,1.03,97,2506,Correct
4F4K_congruent,79,158,1,107,87.03,64.26,0.1,1.01,107,1167,Correct
4F4K_congruent,79,159,1,107,71.6,61.55,0.08,0.97,107,902,Correct
4F4K_congruent,79,160,1,115,33.22,58.0,0.04,0.91,115,1115,Correct
4F4K_congruent,79,161,2,108,49.01,20.19,0.05,0.32,108,1365,Correct
4F4K_congruent,79,162,2,108,60.82,50.4,0.07,0.79,108,1061,Correct
4F4K_congruent,79,163,2,108,74.38,48.3,0.08,0.76,108,806,Correct
4F4K_congruent,79,164,2,97,36.05,52.2,0.04,0.82,97,1668,Correct
4F4K_congruent,79,165,1,107,49.39,39.35,0.06,0.62,107,987,Correct
4F4K_congruent,79,166,2,108,76.99,58.45,0.09,0.92,108,1796,Correct
4F4K_congruent,79,167,2,108,68.2,37.11,0.08,0.58,108,1105,Correct
4F4K_congruent,79,168,2,108,80.59,59.73,0.09,0.94,108,944,Correct
4F4K_congruent,79,169,2,97,14.92,43.87,0.02,0.69,97,1115,Correct
4F4K_congruent,79,170,1,107,81.62,51.12,0.09,0.8,107,747,Correct
4F4K_congruent,79,171,1,107,89.28,64.91,0.1,1.02,107,687,Correct
4F4K_congruent,79,172,2,97,24.83,55.97,0.03,0.88,97,1304,Correct
4F4K_congruent,79,173,2,108,53.79,44.64,0.06,0.7,108,967,Correct
4F4K_congruent,79,174,1,115,33.86,66.99,0.04,1.05,115,1859,Correct
4F4K_congruent,79,175,1,115,43.4,64.01,0.05,1.01,107,991,Incorrect
4F4K_congruent,79,176,1,115,16.67,33.55,0.02,0.53,115,951,Correct
4F4K_congruent,79,177,2,108,33.04,11.23,0.04,0.18,97,2296,Incorrect
4F4K_congruent,79,178,1,115,58.61,78.25,0.07,1.23,107,909,Incorrect
4F4K_congruent,79,179,2,108,87.06,68.7,0.1,1.08,108,752,Correct
4F4K_congruent,79,180,2,97,59.9,72.72,0.07,1.14,108,1173,Incorrect
4F4K_congruent,79,181,2,97,20.23,48.21,0.02,0.76,97,1390,Correct
4F4K_congruent,79,182,2,108,70.22,53.99,0.08,0.85,108,867,Correct
4F4K_congruent,79,183,2,108,40.63,25.79,0.05,0.41,108,1124,Correct
4F4K_congruent,79,184,1,115,18.07,49.07,0.02,0.77,115,1014,Correct
4F4K_congruent,79,185,2,108,44.3,22.53,0.05,0.35,108,1572,Correct
4F4K_congruent,79,186,1,115,32.56,50.85,0.04,0.8,107,4004,Incorrect
4F4K_congruent,79,187,2,97,37.97,56.75,0.04,0.89,97,2027,Correct
4F4K_congruent,79,188,1,107,80.58,60.84,0.09,0.96,107,1086,Correct
4F4K_congruent,79,189,2,97,28.97,46.11,0.03,0.72,97,1262,Correct
4F4K_congruent,79,190,1,107,64.58,34.12,0.07,0.54,107,772,Correct
4F4K_congruent,79,191,1,107,71.38,50.05,0.08,0.79,107,2532,Correct
4F4K_congruent,79,192,2,108,80.78,53.37,0.09,0.84,108,1086,Correct
4F4K_congruent,79,193,1,115,30.65,44.49,0.03,0.7,115,1859,Correct
4F4K_congruent,79,194,1,115,31.49,63.92,0.04,1.0,115,790,Correct
4F4K_congruent,79,195,2,108,53.94,27.51,0.06,0.43,108,729,Correct
4F4K_congruent,79,196,1,115,18.59,33.89,0.02,0.53,115,932,Correct
4F4K_congruent,79,197,2,108,59.28,43.94,0.07,0.69,108,665,Correct
4F4K_congruent,79,198,1,115,20.82,45.4,0.02,0.71,115,731,Correct
4F4K_congruent,79,199,2,108,58.98,37.34,0.07,0.59,108,796,Correct
4F4K_congruent,79,200,1,115,24.16,50.66,0.03,0.8,115,693,Correct
4F4K_congruent,79,201,1,115,30.08,43.35,0.03,0.68,115,667,Correct
4F4K_congruent,79,202,1,115,13.8,40.62,0.02,0.64,115,623,Correct
4F4K_congruent,79,203,2,108,65.59,39.28,0.07,0.62,108,751,Correct
4F4K_congruent,79,204,2,108,36.93,11.76,0.04,0.18,97,1719,Incorrect
4F4K_congruent,79,205,2,108,42.43,27.75,0.05,0.44,108,1197,Correct
4F4K_congruent,79,206,2,108,70.99,51.17,0.08,0.8,108,2226,Correct
4F4K_congruent,79,207,1,107,78.16,56.03,0.09,0.88,107,1534,Correct
4F4K_congruent,79,208,1,107,59.64,49.76,0.07,0.78,107,823,Correct
4F4K_congruent,79,209,2,97,58.5,66.88,0.07,1.05,108,1278,Incorrect
4F4K_congruent,79,210,2,108,35.94,14.69,0.04,0.23,108,1275,Correct
4F4K_congruent,79,211,1,107,49.76,25.13,0.06,0.39,107,1681,Correct
4F4K_congruent,79,212,1,115,47.3,63.48,0.05,1.0,107,1335,Incorrect
4F4K_congruent,79,213,1,115,30.58,53.53,0.03,0.84,115,901,Correct
4F4K_congruent,79,214,1,107,44.12,21.43,0.05,0.34,107,1003,Correct
4F4K_congruent,79,215,1,107,72.54,53.66,0.08,0.84,107,754,Correct
4F4K_congruent,79,216,2,97,54.44,80.04,0.06,1.26,97,2113,Correct
4F4K_congruent,79,217,2,108,54.05,43.86,0.06,0.69,108,652,Correct
4F4K_congruent,79,218,2,97,13.41,32.7,0.02,0.51,97,1593,Correct
4F4K_congruent,79,219,1,107,73.25,51.62,0.08,0.81,107,1125,Correct
4F4K_congruent,79,220,2,108,60.22,36.12,0.07,0.57,108,931,Correct
4F4K_congruent,79,221,1,107,32.24,16.14,0.04,0.25,115,2554,Incorrect
4F4K_congruent,79,222,2,97,10.06,32.75,0.01,0.51,97,1793,Correct
4F4K_congruent,79,223,2,108,80.84,51.52,0.09,0.81,108,871,Correct
4F4K_congruent,79,224,2,108,60.53,51.63,0.07,0.81,108,755,Correct
4F4K_congruent,79,225,1,115,22.99,49.31,0.03,0.77,115,984,Correct
4F4K_congruent,79,226,1,115,38.43,60.74,0.04,0.95,115,1734,Correct
4F4K_congruent,79,227,1,115,31.51,50.73,0.04,0.8,115,858,Correct
4F4K_congruent,79,228,1,107,54.35,41.61,0.06,0.65,107,523,Correct
4F4K_congruent,79,229,2,108,61.15,47.18,0.07,0.74,108,773,Correct
4F4K_congruent,79,230,1,115,16.44,36.79,0.02,0.58,115,1182,Correct
4F4K_congruent,79,231,1,107,51.82,23.88,0.06,0.38,107,955,Correct
4F4K_congruent,79,232,2,108,49.76,20.88,0.06,0.33,108,700,Correct
4F4K_congruent,79,233,1,107,74.61,43.3,0.08,0.68,107,797,Correct
4F4K_congruent,79,234,2,97,27.01,59.61,0.03,0.94,97,1456,Correct
4F4K_congruent,79,235,1,115,23.74,43.71,0.03,0.69,115,845,Correct
4F4K_congruent,79,236,2,108,31.0,16.23,0.03,0.25,97,1492,Incorrect
4F4K_congruent,79,237,2,108,36.92,18.93,0.04,0.3,108,960,Correct
4F4K_congruent,79,238,1,115,54.91,72.9,0.06,1.15,107,1233,Incorrect
4F4K_congruent,79,239,1,115,20.24,35.03,0.02,0.55,115,720,Correct
4F4K_congruent,79,240,1,115,46.79,72.15,0.05,1.13,107,1399,Incorrect
4F4K_congruent,79,241,1,115,28.93,47.95,0.03,0.75,115,1574,Correct
4F4K_congruent,79,242,2,97,18.45,40.4,0.02,0.63,97,1148,Correct
4F4K_congruent,79,243,2,108,42.49,28.76,0.05,0.45,108,700,Correct
4F4K_congruent,79,244,2,108,73.91,58.01,0.08,0.91,108,1505,Correct
4F4K_congruent,79,245,1,107,51.19,29.54,0.06,0.46,107,1046,Correct
4F4K_congruent,79,246,1,107,69.22,45.55,0.08,0.72,107,773,Correct
4F4K_congruent,79,247,1,107,63.17,46.77,0.07,0.73,107,882,Correct
4F4K_congruent,79,248,2,108,65.63,57.39,0.07,0.9,108,834,Correct
4F4K_congruent,79,249,1,115,22.89,53.68,0.03,0.84,115,811,Correct
4F4K_congruent,79,250,1,107,31.19,12.37,0.03,0.19,115,1037,Incorrect
4F4K_congruent,79,251,2,108,61.2,39.22,0.07,0.62,108,780,Correct
4F4K_congruent,79,252,2,97,27.83,50.22,0.03,0.79,97,723,Correct
4F4K_congruent,79,253,1,115,17.66,41.25,0.02,0.65,115,768,Correct
4F4K_congruent,79,254,2,108,70.42,61.36,0.08,0.96,108,743,Correct
4F4K_congruent,79,255,1,115,55.77,84.91,0.06,1.33,107,1324,Incorrect
4F4K_congruent,79,256,2,97,45.43,58.13,0.05,0.91,97,2531,Correct
4F4K_congruent,79,257,1,107,80.87,65.56,0.09,1.03,107,1169,Correct
4F4K_congruent,79,258,1,107,71.23,49.24,0.08,0.77,107,665,Correct
4F4K_congruent,79,259,2,108,64.48,40.61,0.07,0.64,108,873,Correct
4F4K_congruent,79,260,2,108,35.66,18.93,0.04,0.3,97,1343,Incorrect
4F4K_congruent,79,261,2,97,42.43,56.84,0.05,0.89,97,2253,Correct
4F4K_congruent,79,262,1,115,38.47,64.86,0.04,1.02,115,1141,Correct
4F4K_congruent,79,263,2,97,18.84,45.62,0.02,0.72,97,1465,Correct
4F4K_congruent,79,264,2,97,57.47,79.76,0.06,1.25,108,1037,Incorrect
4F4K_congruent,79,265,1,115,36.51,56.33,0.04,0.88,115,1964,Correct
4F4K_congruent,79,266,2,97,63.06,81.58,0.07,1.28,108,850,Incorrect
4F4K_congruent,79,267,1,115,29.85,49.51,0.03,0.78,115,896,Correct
4F4K_congruent,79,268,2,97,45.21,72.33,0.05,1.14,108,3500,Incorrect
4F4K_congruent,79,269,1,115,65.11,79.54,0.07,1.25,107,1175,Incorrect
4F4K_congruent,79,270,2,97,37.43,70.09,0.04,1.1,97,3400,Correct
4F4K_congruent,79,271,2,97,56.49,82.06,0.06,1.29,97,1372,Correct
4F4K_congruent,79,272,1,107,76.23,59.98,0.09,0.94,107,1300,Correct
4F4K_congruent,79,273,1,107,45.13,21.11,0.05,0.33,107,1153,Correct
4F4K_congruent,79,274,2,108,49.43,28.38,0.06,0.45,108,1296,Correct
4F4K_congruent,79,275,1,115,20.17,35.44,0.02,0.56,115,1752,Correct
4F4K_congruent,79,276,2,97,28.0,53.3,0.03,0.84,97,1211,Correct
4F4K_congruent,79,277,1,115,38.88,58.3,0.04,0.92,115,1252,Correct
4F4K_congruent,79,278,2,97,49.38,73.58,0.06,1.16,97,2656,Correct
4F4K_congruent,79,279,1,107,67.69,41.17,0.08,0.65,107,881,Correct
4F4K_congruent,79,280,2,97,36.56,55.34,0.04,0.87,97,1029,Correct
4F4K_congruent,79,281,2,108,50.91,36.6,0.06,0.57,108,1089,Correct
4F4K_congruent,79,282,2,108,45.1,34.85,0.05,0.55,108,975,Correct
4F4K_congruent,79,283,1,115,30.83,48.06,0.03,0.75,115,1058,Correct
4F4K_congruent,79,284,2,108,68.36,36.2,0.08,0.57,108,948,Correct
4F4K_congruent,79,285,2,108,68.37,37.69,0.08,0.59,108,617,Correct
4F4K_congruent,79,286,1,107,53.28,26.3,0.06,0.41,107,1531,Correct
4F4K_congruent,79,287,1,115,11.54,37.68,0.01,0.59,115,434,Correct
4F4K_congruent,79,288,2,97,48.05,55.12,0.05,0.87,97,2714,Correct
4F4K_congruent,79,289,1,107,71.36,45.11,0.08,0.71,107,955,Correct
4F4K_congruent,79,290,1,107,70.77,49.11,0.08,0.77,107,774,Correct
4F4K_congruent,79,291,1,115,23.14,38.65,0.03,0.61,115,814,Correct
4F4K_congruent,79,292,1,115,69.13,86.88,0.08,1.36,115,1420,Correct
4F4K_congruent,79,293,1,115,29.51,57.16,0.03,0.9,115,881,Correct
4F4K_congruent,79,294,2,108,46.83,32.1,0.05,0.5,108,1613,Correct
4F4K_congruent,79,295,2,97,16.41,41.48,0.02,0.65,97,1349,Correct
4F4K_congruent,79,296,2,97,33.62,44.87,0.04,0.7,97,1201,Correct
4F4K_congruent,79,297,2,97,50.76,81.27,0.06,1.28,108,1041,Incorrect
4F4K_congruent,79,298,2,108,46.54,35.0,0.05,0.55,108,976,Correct
4F4K_congruent,79,299,2,97,41.06,63.47,0.05,1.0,97,722,Correct
4F4K_congruent,79,300,1,115,57.85,68.46,0.06,1.08,107,1507,Incorrect
4F4K_congruent,79,301,1,115,30.3,55.67,0.03,0.87,115,1445,Correct
4F4K_congruent,79,302,2,97,37.96,66.01,0.04,1.04,97,1472,Correct
4F4K_congruent,79,303,2,97,24.49,34.94,0.03,0.55,97,1470,Correct
4F4K_congruent,79,304,1,115,22.3,52.42,0.02,0.82,115,902,Correct
4F4K_congruent,79,305,1,115,39.4,60.81,0.04,0.96,107,4207,Incorrect
4F4K_congruent,79,306,2,97,18.52,42.18,0.02,0.66,97,1027,Correct
4F4K_congruent,79,307,1,115,23.14,36.91,0.03,0.58,115,797,Correct
4F4K_congruent,79,308,1,107,54.16,23.11,0.06,0.36,107,747,Correct
4F4K_congruent,79,309,2,97,56.03,81.11,0.06,1.27,108,1712,Incorrect
4F4K_congruent,79,310,2,97,28.21,45.37,0.03,0.71,108,1302,Incorrect
4F4K_congruent,79,311,1,115,29.86,56.26,0.03,0.88,115,1363,Correct
4F4K_congruent,79,312,2,108,53.4,29.76,0.06,0.47,108,2904,Correct
4F4K_congruent,79,313,1,107,54.92,34.07,0.06,0.54,107,1161,Correct
4F4K_congruent,79,314,2,97,35.96,45.31,0.04,0.71,108,3204,Incorrect
4F4K_congruent,79,315,2,108,38.63,26.45,0.04,0.42,108,1017,Correct
4F4K_congruent,79,316,1,107,43.61,15.19,0.05,0.24,107,832,Correct
4F4K_congruent,79,317,1,115,33.62,50.41,0.04,0.79,115,1911,Correct
4F4K_congruent,79,318,1,115,54.54,67.12,0.06,1.05,115,802,Correct
4F4K_congruent,79,319,2,97,59.19,85.67,0.07,1.35,97,2000,Correct
4F4K_congruent,79,320,2,108,38.15,19.31,0.04,0.3,108,1327,Correct
4F4K_congruent,79,321,2,97,64.16,77.12,0.07,1.21,97,1616,Correct
4F4K_congruent,79,322,1,107,43.71,33.52,0.05,0.53,107,2388,Correct
4F4K_congruent,79,323,1,107,49.33,32.38,0.06,0.51,107,853,Correct
4F4K_congruent,79,324,2,97,47.05,75.25,0.05,1.18,97,2462,Correct
4F4K_congruent,79,325,2,108,50.89,23.07,0.06,0.36,108,1132,Correct
4F4K_congruent,79,326,1,107,59.72,47.06,0.07,0.74,107,3145,Correct
4F4K_congruent,79,327,1,107,51.49,26.07,0.06,0.41,107,4019,Correct
4F4K_congruent,79,328,1,115,21.84,48.09,0.02,0.76,115,1093,Correct
4F4K_congruent,79,329,2,97,41.47,65.83,0.05,1.03,97,2856,Correct
4F4K_congruent,79,330,1,107,85.74,63.85,0.1,1.0,115,1989,Incorrect
4F4K_congruent,79,331,1,107,61.39,35.81,0.07,0.56,107,1220,Correct
4F4K_congruent,79,332,1,115,14.19,38.12,0.02,0.6,115,1008,Correct
4F4K_congruent,79,333,1,107,70.72,47.23,0.08,0.74,107,1102,Correct
4F4K_congruent,79,334,1,115,54.99,66.45,0.06,1.04,115,3322,Correct
4F4K_congruent,79,335,2,108,72.5,53.59,0.08,0.84,108,1380,Correct
4F4K_congruent,79,336,2,108,46.96,18.86,0.05,0.3,108,887,Correct
4F4K_congruent,79,337,1,107,77.09,64.57,0.09,1.01,115,1304,Incorrect
4F4K_congruent,79,338,1,107,61.74,30.3,0.07,0.48,107,1595,Correct
4F4K_congruent,79,339,2,108,63.65,49.29,0.07,0.77,108,896,Correct
4F4K_congruent,79,340,1,115,46.87,64.28,0.05,1.01,115,1001,Correct
4F4K_congruent,79,341,2,97,23.92,55.45,0.03,0.87,97,2237,Correct
4F4K_congruent,79,342,1,107,66.4,39.52,0.07,0.62,107,1443,Correct
4F4K_congruent,79,343,2,97,37.73,61.27,0.04,0.96,97,935,Correct
4F4K_congruent,79,344,1,115,57.87,80.55,0.06,1.27,115,1551,Correct
4F4K_congruent,79,345,2,97,65.99,76.92,0.07,1.21,97,3686,Correct
4F4K_congruent,79,346,1,115,34.87,63.54,0.04,1.0,115,1044,Correct
4F4K_congruent,79,347,2,108,69.29,50.99,0.08,0.8,108,1221,Correct
4F4K_congruent,79,348,2,97,29.35,43.06,0.03,0.68,97,1199,Correct
4F4K_congruent,79,349,1,115,53.46,73.13,0.06,1.15,115,1529,Correct
4F4K_congruent,79,350,1,107,43.61,18.51,0.05,0.29,107,2062,Correct
4F4K_congruent,79,351,2,97,62.14,80.38,0.07,1.26,97,1502,Correct
4F4K_congruent,79,352,2,97,19.18,40.89,0.02,0.64,97,1308,Correct
4F4K_congruent,79,353,1,107,71.37,55.3,0.08,0.87,107,1506,Correct
4F4K_congruent,79,354,2,97,18.59,37.39,0.02,0.59,97,694,Correct
4F4K_congruent,79,355,2,97,29.14,49.22,0.03,0.77,97,748,Correct
4F4K_congruent,79,356,1,107,58.28,46.67,0.07,0.73,107,1033,Correct
4F4K_congruent,79,357,1,115,56.36,75.21,0.06,1.18,115,1151,Correct
4F4K_congruent,79,358,2,108,61.86,37.97,0.07,0.6,108,6642,Correct
4F4K_congruent,79,359,1,115,63.44,80.58,0.07,1.27,115,1185,Correct
4F4K_congruent,79,360,2,97,53.01,60.77,0.06,0.95,97,1745,Correct
4F4K_congruent,79,361,2,97,47.15,61.15,0.05,0.96,97,699,Correct
4F4K_congruent,79,362,1,107,34.12,11.47,0.04,0.18,115,1509,Incorrect
4F4K_congruent,79,363,2,108,72.67,51.95,0.08,0.82,108,2606,Correct
4F4K_congruent,79,364,2,97,57.51,73.15,0.06,1.15,97,2992,Correct
4F4K_congruent,79,365,2,108,79.19,58.62,0.09,0.92,108,2161,Correct
4F4K_congruent,79,366,1,115,24.87,49.28,0.03,0.77,115,784,Correct
4F4K_congruent,79,367,2,108,62.85,42.34,0.07,0.67,108,1362,Correct
4F4K_congruent,79,368,1,115,67.67,85.9,0.08,1.35,115,953,Correct
4F4K_congruent,79,369,2,108,41.82,29.76,0.05,0.47,108,2225,Correct
4F4K_congruent,79,370,1,107,78.97,62.19,0.09,0.98,115,1075,Incorrect
4F4K_congruent,79,371,2,108,85.04,60.24,0.1,0.95,108,2020,Correct
4F4K_congruent,79,372,2,108,56.34,49.16,0.06,0.77,97,2345,Incorrect
4F4K_congruent,79,373,2,97,41.68,51.66,0.05,0.81,97,825,Correct
4F4K_congruent,79,374,2,108,54.43,24.34,0.06,0.38,108,913,Correct
4F4K_congruent,79,375,1,107,48.83,36.95,0.05,0.58,115,2148,Incorrect
4F4K_congruent,79,376,2,97,33.53,64.73,0.04,1.02,97,931,Correct
4F4K_congruent,79,377,2,97,44.1,53.4,0.05,0.84,97,1003,Correct
4F4K_congruent,79,378,1,115,13.82,41.03,0.02,0.64,115,914,Correct
4F4K_congruent,79,379,2,97,57.85,69.51,0.06,1.09,97,1139,Correct
4F4K_congruent,79,380,1,115,19.67,38.71,0.02,0.61,115,724,Correct
4F4K_congruent,79,381,2,108,38.25,24.8,0.04,0.39,108,897,Correct
4F4K_congruent,79,382,1,107,78.62,66.44,0.09,1.04,115,977,Incorrect
4F4K_congruent,79,383,2,97,50.15,79.1,0.06,1.24,97,1254,Correct
4F4K_congruent,79,384,1,107,73.28,58.56,0.08,0.92,107,1317,Correct
4F4K_congruent,79,385,1,115,57.0,64.75,0.06,1.02,107,1137,Incorrect
4F4K_congruent,79,386,1,115,53.54,82.03,0.06,1.29,115,803,Correct
4F4K_congruent,79,387,1,107,83.05,55.56,0.09,0.87,107,1080,Correct
4F4K_congruent,79,388,2,108,71.34,39.12,0.08,0.61,108,1594,Correct
4F4K_congruent,79,389,1,107,42.82,29.07,0.05,0.46,115,4660,Incorrect
4F4K_congruent,79,390,1,115,11.67,36.06,0.01,0.57,115,761,Correct
4F4K_congruent,79,391,1,115,30.62,50.43,0.03,0.79,115,1217,Correct
4F4K_congruent,79,392,2,108,54.56,33.13,0.06,0.52,108,1106,Correct
4F4K_congruent,79,393,2,97,38.8,60.83,0.04,0.96,97,1196,Correct
4F4K_congruent,79,394,1,115,42.03,50.38,0.05,0.79,115,1444,Correct
4F4K_congruent,79,395,1,107,66.87,49.69,0.07,0.78,107,1047,Correct
4F4K_congruent,79,396,2,108,55.31,39.88,0.06,0.63,108,1522,Correct
4F4K_congruent,79,397,1,107,44.04,33.91,0.05,0.53,107,921,Correct
4F4K_congruent,79,398,1,107,51.14,29.1,0.06,0.46,107,849,Correct
