condition,subject,trial,sub_task,cat,x,y,xt,yt,resp,rt,fb
4F4K_congruent,43,0,2,97,19.2,35.47,0.02,0.56,108,9086,Incorrect
4F4K_congruent,43,1,2,97,39.4,65.39,0.04,1.03,97,6596,Correct
4F4K_congruent,43,2,1,115,29.06,42.86,0.03,0.67,107,4795,Incorrect
4F4K_congruent,43,3,2,97,39.8,53.36,0.04,0.84,97,7713,Correct
4F4K_congruent,43,4,1,107,37.31,16.1,0.04,0.25,107,5515,Correct
4F4K_congruent,43,5,2,97,44.33,71.72,0.05,1.13,108,3018,Incorrect
4F4K_congruent,43,6,1,115,50.94,66.71,0.06,1.05,107,10286,Incorrect
4F4K_congruent,43,7,2,97,28.13,45.73,0.03,0.72,108,8981,Incorrect
4F4K_congruent,43,8,2,108,77.88,57.4,0.09,0.9,108,1701,Correct
4F4K_congruent,43,9,1,107,84.83,58.92,0.09,0.93,107,1967,Correct
4F4K_congruent,43,10,2,97,56.11,83.99,0.06,1.32,97,2811,Correct
4F4K_congruent,43,11,1,115,59.26,70.98,0.07,1.11,115,2466,Correct
4F4K_congruent,43,12,2,108,40.69,28.77,0.05,0.45,97,1710,Incorrect
4F4K_congruent,43,13,2,108,66.73,43.63,0.07,0.69,108,2896,Correct
4F4K_congruent,43,14,2,108,68.06,49.5,0.08,0.78,108,4489,Correct
4F4K_congruent,43,15,1,107,65.75,51.12,0.07,0.8,107,3234,Correct
4F4K_congruent,43,16,1,107,81.83,55.3,0.09,0.87,107,1512,Correct
4F4K_congruent,43,17,2,97,38.24,57.29,0.04,0.9,97,2753,Correct
4F4K_congruent,43,18,2,97,52.42,60.68,0.06,0.95,97,3337,Correct
4F4K_congruent,43,19,1,115,39.9,59.07,0.04,0.93,115,1448,Correct
4F4K_congruent,43,20,2,108,60.66,52.12,0.07,0.82,97,2090,Incorrect
4F4K_congruent,43,21,1,107,88.07,62.03,0.1,0.97,107,1409,Correct
4F4K_congruent,43,22,1,107,48.45,32.83,0.05,0.52,115,1947,Incorrect
4F4K_congruent,43,23,1,107,54.19,40.02,0.06,0.63,107,1584,Correct
4F4K_congruent,43,24,2,97,36.88,65.55,0.04,1.03,97,3110,Correct
4F4K_congruent,43,25,2,97,38.22,71.22,0.04,1.12,97,1255,Correct
4F4K_congruent,43,26,2,97,20.24,43.38,0.02,0.68,97,1242,Correct
4F4K_congruent,43,27,1,115,38.13,48.34,0.04,0.76,115,1150,Correct
4F4K_congruent,43,28,1,107,59.29,28.99,0.07,0.46,107,2043,Correct
4F4K_congruent,43,29,2,108,40.43,28.69,0.05,0.45,97,2371,Incorrect
4F4K_congruent,43,30,2,97,43.65,50.35,0.05,0.79,97,2309,Correct
4F4K_congruent,43,31,1,107,34.66,20.3,0.04,0.32,115,2669,Incorrect
4F4K_congruent,43,32,1,115,48.75,58.72,0.05,0.92,107,3632,Incorrect
4F4K_congruent,43,33,2,97,41.03,71.21,0.05,1.12,97,3746,Correct
4F4K_congruent,43,34,1,107,70.0,37.01,0.08,0.58,107,1110,Correct
4F4K_congruent,43,35,2,108,74.67,42.59,0.08,0.67,108,3710,Correct
4F4K_congruent,43,36,1,107,36.65,12.85,0.04,0.2,115,2089,Incorrect
4F4K_congruent,43,37,1,115,51.64,65.95,0.06,1.04,107,2291,Incorrect
4F4K_congruent,43,38,1,107,59.21,39.98,0.07,0.63,107,1796,Correct
4F4K_congruent,43,39,2,97,36.56,65.29,0.04,1.03,97,4790,Correct
4F4K_congruent,43,40,1,115,41.83,48.79,0.05,0.77,115,5805,Correct
4F4K_congruent,43,41,2,108,50.79,26.95,0.06,0.42,108,1489,Correct
4F4K_congruent,43,42,2,97,47.37,75.06,0.05,1.18,97,821,Correct
4F4K_congruent,43,43,2,97,62.1,85.85,0.07,1.35,108,956,Incorrect
4F4K_congruent,43,44,1,115,29.19,52.76,0.03,0.83,115,1359,Correct
4F4K_congruent,43,45,2,108,49.22,33.44,0.06,0.53,108,7032,Correct
4F4K_congruent,43,46,2,97,46.73,67.03,0.05,1.05,108,1468,Incorrect
4F4K_congruent,43,47,1,107,70.81,40.85,0.08,0.64,107,2776,Correct
4F4K_congruent,43,48,2,108,54.45,35.67,0.06,0.56,97,2185,Incorrect
4F4K_congruent,43,49,2,108,60.66,36.42,0.07,0.57,108,4391,Correct
4F4K_congruent,43,50,1,107,46.37,18.1,0.05,0.28,115,6261,Incorrect
4F4K_congruent,43,51,1,107,79.81,55.45,0.09,0.87,107,8039,Correct
4F4K_congruent,43,52,2,97,50.72,60.58,0.06,0.95,97,4968,Correct
4F4K_congruent,43,53,2,97,60.24,83.87,0.07,1.32,97,2110,Correct
4F4K_congruent,43,54,2,97,22.89,36.73,0.03,0.58,97,6465,Correct
4F4K_congruent,43,55,2,97,35.86,59.69,0.04,0.94,97,5017,Correct
4F4K_congruent,43,56,1,115,21.64,36.89,0.02,0.58,115,6101,Correct
4F4K_congruent,43,57,1,107,79.28,54.71,0.09,0.86,107,2875,Correct
4F4K_congruent,43,58,2,97,43.97,67.86,0.05,1.07,108,4082,Incorrect
4F4K_congruent,43,59,2,108,78.18,51.44,0.09,0.81,97,8852,Incorrect
4F4K_congruent,43,60,1,107,66.62,36.52,0.07,0.57,107,7499,Correct
4F4K_congruent,43,61,1,107,54.94,45.64,0.06,0.72,107,1745,Correct
4F4K_congruent,43,62,1,107,68.96,60.51,0.08,0.95,107,2235,Correct
4F4K_congruent,43,63,1,115,13.81,40.98,0.02,0.64,115,3111,Correct
4F4K_congruent,43,64,2,97,48.13,61.33,0.05,0.96,108,7052,Incorrect
4F4K_congruent,43,65,1,115,61.01,71.82,0.07,1.13,107,4579,Incorrect
4F4K_congruent,43,66,2,97,29.64,46.93,0.03,0.74,97,1461,Correct
4F4K_congruent,43,67,2,108,43.78,35.62,0.05,0.56,108,4605,Correct
4F4K_congruent,43,68,1,115,14.36,36.13,0.02,0.57,115,1238,Correct
4F4K_congruent,43,69,1,107,48.64,25.06,0.05,0.39,107,6924,Correct
4F4K_congruent,43,70,1,115,24.28,36.16,0.03,0.57,115,895,Correct
4F4K_congruent,43,71,1,107,62.8,37.59,0.07,0.59,107,1303,Correct
4F4K_congruent,43,72,1,115,65.19,86.77,0.07,1.36,107,1976,Incorrect
4F4K_congruent,43,73,1,115,46.29,54.73,0.05,0.86,107,1863,Incorrect
4F4K_congruent,43,74,1,115,66.31,88.9,0.07,1.4,115,6959,Correct
4F4K_congruent,43,75,1,107,66.41,37.0,0.07,0.58,107,2061,Correct
4F4K_congruent,43,76,1,107,85.72,59.81,0.1,0.94,107,1292,Correct
4F4K_congruent,43,77,1,115,38.28,66.14,0.04,1.04,115,1030,Correct
4F4K_congruent,43,78,2,108,55.08,35.79,0.06,0.56,97,2759,Incorrect
4F4K_congruent,43,79,2,97,68.37,87.82,0.08,1.38,108,846,Incorrect
4F4K_congruent,43,80,2,108,58.0,44.75,0.06,0.7,108,1782,Correct
4F4K_congruent,43,81,1,107,77.37,50.48,0.09,0.79,107,1087,Correct
4F4K_congruent,43,82,2,97,29.32,40.47,0.03,0.64,97,763,Correct
4F4K_congruent,43,83,1,107,38.31,26.35,0.04,0.41,115,1146,Incorrect
4F4K_congruent,43,84,2,97,41.8,51.59,0.05,0.81,97,990,Correct
4F4K_congruent,43,85,2,97,14.03,39.82,0.02,0.63,97,871,Correct
4F4K_congruent,43,86,2,108,53.42,23.05,0.06,0.36,108,4427,Correct
4F4K_congruent,43,87,1,115,49.08,60.3,0.05,0.95,107,2702,Incorrect
4F4K_congruent,43,88,2,97,39.32,69.26,0.04,1.09,97,766,Correct
4F4K_congruent,43,89,2,108,45.76,19.68,0.05,0.31,97,5018,Incorrect
4F4K_congruent,43,90,1,115,34.82,55.75,0.04,0.88,115,804,Correct
4F4K_congruent,43,91,1,115,51.98,66.33,0.06,1.04,115,1556,Correct
4F4K_congruent,43,92,2,97,49.31,70.34,0.06,1.1,97,2656,Correct
4F4K_congruent,43,93,2,108,47.99,36.41,0.05,0.57,97,1923,Incorrect
4F4K_congruent,43,94,2,108,77.1,46.05,0.09,0.72,108,2975,Correct
4F4K_congruent,43,95,2,108,45.23,20.02,0.05,0.31,97,1543,Incorrect
4F4K_congruent,43,96,1,115,41.88,54.35,0.05,0.85,115,11897,Correct
4F4K_congruent,43,97,2,97,64.51,84.01,0.07,1.32,108,2162,Incorrect
4F4K_congruent,43,98,2,108,57.71,29.03,0.06,0.46,108,4860,Correct
4F4K_congruent,43,99,2,97,46.16,60.57,0.05,0.95,97,2452,Correct
4F4K_congruent,43,100,1,107,58.05,49.12,0.06,0.77,107,6919,Correct
4F4K_congruent,43,101,2,97,18.91,46.65,0.02,0.73,97,815,Correct
4F4K_congruent,43,102,1,107,44.71,31.64,0.05,0.5,107,2191,Correct
4F4K_congruent,43,103,1,115,52.93,63.21,0.06,0.99,107,5400,Incorrect
4F4K_congruent,43,104,2,108,41.73,28.91,0.05,0.45,108,3203,Correct
4F4K_congruent,43,105,2,108,53.11,33.35,0.06,0.52,108,3905,Correct
4F4K_congruent,43,106,2,97,25.73,54.46,0.03,0.86,97,1081,Correct
4F4K_congruent,43,107,1,107,54.43,43.22,0.06,0.68,115,6162,Incorrect
4F4K_congruent,43,108,2,108,83.16,53.59,0.09,0.84,97,1525,Incorrect
4F4K_congruent,43,109,1,107,67.34,55.19,0.08,0.87,107,4885,Correct
4F4K_congruent,43,110,2,97,28.52,56.24,0.03,0.88,97,1002,Correct
4F4K_congruent,43,111,2,108,34.48,19.46,0.04,0.31,97,1820,Incorrect
4F4K_congruent,43,112,2,97,27.04,41.94,0.03,0.66,97,1079,Correct
4F4K_congruent,43,113,2,108,52.38,24.26,0.06,0.38,108,2041,Correct
4F4K_congruent,43,114,2,97,58.73,79.41,0.07,1.25,108,3614,Incorrect
4F4K_congruent,43,115,1,107,66.29,44.51,0.07,0.7,107,995,Correct
4F4K_congruent,43,116,1,107,62.4,47.06,0.07,0.74,107,4718,Correct
4F4K_congruent,43,117,2,108,72.0,43.44,0.08,0.68,108,4179,Correct
4F4K_congruent,43,118,2,108,37.35,12.47,0.04,0.2,97,975,Incorrect
4F4K_congruent,43,119,1,107,50.71,39.29,0.06,0.62,115,4278,Incorrect
4F4K_congruent,43,120,1,107,82.5,57.53,0.09,0.9,115,798,Incorrect
4F4K_congruent,43,121,1,115,56.13,67.62,0.06,1.06,107,4960,Incorrect
4F4K_congruent,43,122,2,108,72.51,50.23,0.08,0.79,97,2692,Incorrect
4F4K_congruent,43,123,1,115,57.81,70.01,0.06,1.1,107,4865,Incorrect
4F4K_congruent,43,124,1,107,76.97,55.16,0.09,0.87,107,1477,Correct
4F4K_congruent,43,125,1,115,57.09,82.59,0.06,1.3,115,1667,Correct
4F4K_congruent,43,126,2,97,26.14,58.52,0.03,0.92,97,655,Correct
4F4K_congruent,43,127,1,107,76.99,52.49,0.09,0.82,107,1630,Correct
4F4K_congruent,43,128,1,107,36.26,18.08,0.04,0.28,115,2461,Incorrect
4F4K_congruent,43,129,1,115,27.07,48.58,0.03,0.76,115,1311,Correct
4F4K_congruent,43,130,1,107,55.49,40.6,0.06,0.64,107,1352,Correct
4F4K_congruent,43,131,2,97,34.65,45.05,0.04,0.71,97,2424,Correct
4F4K_congruent,43,132,2,97,64.72,87.64,0.07,1.38,97,2987,Correct
4F4K_congruent,43,133,2,108,51.1,43.75,0.06,0.69,108,1920,Correct
4F4K_congruent,43,134,1,115,47.68,66.5,0.05,1.04,115,1987,Correct
4F4K_congruent,43,135,2,108,66.0,47.67,0.07,0.75,108,915,Correct
4F4K_congruent,43,136,2,108,30.41,12.87,0.03,0.2,108,1217,Correct
4F4K_congruent,43,137,1,107,43.59,28.26,0.05,0.44,107,2136,Correct
4F4K_congruent,43,138,1,107,71.97,56.37,0.08,0.89,115,3277,Incorrect
4F4K_congruent,43,139,1,115,61.36,71.8,0.07,1.13,107,1683,Incorrect
4F4K_congruent,43,140,2,108,43.46,35.62,0.05,0.56,108,4527,Correct
4F4K_congruent,43,141,1,115,29.03,43.35,0.03,0.68,115,837,Correct
4F4K_congruent,43,142,1,115,20.51,46.86,0.02,0.74,115,819,Correct
4F4K_congruent,43,143,1,107,82.46,62.0,0.09,0.97,107,7576,Correct
4F4K_congruent,43,144,2,97,34.06,47.77,0.04,0.75,97,1755,Correct
4F4K_congruent,43,145,1,107,66.38,46.13,0.07,0.72,107,3204,Correct
4F4K_congruent,43,146,2,108,69.36,43.49,0.08,0.68,108,3199,Correct
4F4K_congruent,43,147,1,107,50.74,30.11,0.06,0.47,107,2447,Correct
4F4K_congruent,43,148,2,108,41.86,29.69,0.05,0.47,97,1180,Incorrect
4F4K_congruent,43,149,2,97,52.2,65.05,0.06,1.02,97,2166,Correct
4F4K_congruent,43,150,2,97,48.42,66.72,0.05,1.05,97,2265,Correct
4F4K_congruent,43,151,2,97,65.03,84.76,0.07,1.33,97,5340,Correct
4F4K_congruent,43,152,2,97,11.15,34.95,0.01,0.55,97,818,Correct
4F4K_congruent,43,153,2,97,30.58,59.34,0.03,0.93,97,1903,Correct
4F4K_congruent,43,154,1,107,39.51,29.99,0.04,0.47,115,2698,Incorrect
4F4K_congruent,43,155,2,108,46.57,38.18,0.05,0.6,108,1080,Correct
4F4K_congruent,43,156,1,107,49.65,22.62,0.06,0.36,107,2288,Correct
4F4K_congruent,43,157,1,115,39.77,56.75,0.04,0.89,115,2771,Correct
4F4K_congruent,43,158,1,107,40.27,12.74,0.05,0.2,107,1161,Correct
4F4K_congruent,43,159,1,107,59.07,37.5,0.07,0.59,107,1277,Correct
4F4K_congruent,43,160,2,97,35.26,46.1,0.04,0.72,108,3069,Incorrect
4F4K_congruent,43,161,2,108,55.93,33.65,0.06,0.53,108,2057,Correct
4F4K_congruent,43,162,2,97,35.24,68.33,0.04,1.07,97,3750,Correct
4F4K_congruent,43,163,1,107,41.42,19.68,0.05,0.31,107,3602,Correct
4F4K_congruent,43,164,1,115,27.03,51.43,0.03,0.81,115,1337,Correct
4F4K_congruent,43,165,2,97,34.59,62.16,0.04,0.98,97,994,Correct
4F4K_congruent,43,166,2,97,45.53,60.36,0.05,0.95,108,4152,Incorrect
4F4K_congruent,43,167,2,108,78.56,55.24,0.09,0.87,108,1007,Correct
4F4K_congruent,43,168,2,108,45.11,29.5,0.05,0.46,108,2525,Correct
4F4K_congruent,43,169,2,97,43.98,68.62,0.05,1.08,97,2893,Correct
4F4K_congruent,43,170,2,97,34.0,64.01,0.04,1.01,97,1159,Correct
4F4K_congruent,43,171,2,97,35.91,56.88,0.04,0.89,97,2144,Correct
4F4K_congruent,43,172,1,107,60.98,31.24,0.07,0.49,107,1268,Correct
4F4K_congruent,43,173,1,115,27.31,38.5,0.03,0.6,115,1225,Correct
4F4K_congruent,43,174,2,97,43.98,55.22,0.05,0.87,108,1363,Incorrect
4F4K_congruent,43,175,1,107,86.3,68.32,0.1,1.07,107,683,Correct
4F4K_congruent,43,176,2,108,82.1,65.63,0.09,1.03,108,789,Correct
4F4K_congruent,43,177,1,115,54.05,82.12,0.06,1.29,115,1855,Correct
4F4K_congruent,43,178,1,115,48.4,76.04,0.05,1.19,115,766,Correct
4F4K_congruent,43,179,2,97,61.09,79.36,0.07,1.25,97,1029,Correct
4F4K_congruent,43,180,1,115,63.34,85.96,0.07,1.35,115,1082,Correct
4F4K_congruent,43,181,2,97,54.53,79.45,0.06,1.25,97,898,Correct
4F4K_congruent,43,182,1,107,41.31,24.87,0.05,0.39,107,2334,Correct
4F4K_congruent,43,183,1,107,47.34,38.63,0.05,0.61,107,1208,Correct
4F4K_congruent,43,184,1,115,33.01,63.62,0.04,1.0,107,929,Incorrect
4F4K_congruent,43,185,1,115,29.22,51.43,0.03,0.81,115,655,Correct
4F4K_congruent,43,186,1,115,28.78,44.32,0.03,0.7,115,627,Correct
4F4K_congruent,43,187,1,115,55.83,80.9,0.06,1.27,107,798,Incorrect
4F4K_congruent,43,188,1,107,62.81,52.2,0.07,0.82,107,659,Correct
4F4K_congruent,43,189,2,97,12.09,32.32,0.01,0.51,97,2167,Correct
4F4K_congruent,43,190,1,115,20.52,34.72,0.02,0.55,115,658,Correct
4F4K_congruent,43,191,2,108,69.62,50.52,0.08,0.79,108,704,Correct
4F4K_congruent,43,192,2,97,16.06,40.87,0.02,0.64,97,691,Correct
4F4K_congruent,43,193,1,115,44.87,53.88,0.05,0.85,107,5688,Incorrect
4F4K_congruent,43,194,1,115,12.15,32.94,0.01,0.52,115,643,Correct
4F4K_congruent,43,195,1,115,25.7,49.01,0.03,0.77,115,2042,Correct
4F4K_congruent,43,196,1,107,83.41,65.21,0.09,1.02,107,742,Correct
4F4K_congruent,43,197,2,97,45.83,61.74,0.05,0.97,108,1776,Incorrect
4F4K_congruent,43,198,2,108,52.05,45.43,0.06,0.71,108,891,Correct
4F4K_congruent,43,199,2,108,84.8,66.48,0.09,1.04,108,985,Correct
4F4K_congruent,43,200,2,97,46.89,56.73,0.05,0.89,97,4627,Correct
4F4K_congruent,43,201,2,108,71.05,60.1,0.08,0.94,108,706,Correct
4F4K_congruent,43,202,1,107,60.99,32.63,0.07,0.51,107,1216,Correct
4F4K_congruent,43,203,2,108,32.88,18.72,0.04,0.29,97,1064,Incorrect
4F4K_congruent,43,204,1,107,33.83,11.16,0.04,0.18,115,1289,Incorrect
4F4K_congruent,43,205,1,107,43.27,15.45,0.05,0.24,107,531,Correct
4F4K_congruent,43,206,2,97,64.47,77.62,0.07,1.22,108,1052,Incorrect
4F4K_congruent,43,207,2,97,43.9,56.54,0.05,0.89,108,4228,Incorrect
4F4K_congruent,43,208,2,97,42.96,61.66,0.05,0.97,108,1322,Incorrect
4F4K_congruent,43,209,1,107,46.58,33.08,0.05,0.52,107,798,Correct
4F4K_congruent,43,210,1,115,58.29,79.16,0.07,1.24,115,1240,Correct
4F4K_congruent,43,211,2,97,52.98,78.39,0.06,1.23,97,1144,Correct
4F4K_congruent,43,212,2,108,34.06,19.53,0.04,0.31,97,4498,Incorrect
4F4K_congruent,43,213,2,97,12.42,36.6,0.01,0.57,97,696,Correct
4F4K_congruent,43,214,2,97,21.92,40.35,0.02,0.63,97,668,Correct
4F4K_congruent,43,215,2,108,54.08,39.78,0.06,0.62,108,3808,Correct
4F4K_congruent,43,216,1,107,48.15,31.82,0.05,0.5,107,2886,Correct
4F4K_congruent,43,217,1,107,65.23,43.96,0.07,0.69,107,2929,Correct
4F4K_congruent,43,218,2,97,19.27,45.65,0.02,0.72,97,893,Correct
4F4K_congruent,43,219,2,108,82.7,57.72,0.09,0.91,108,901,Correct
4F4K_congruent,43,220,2,108,80.72,55.22,0.09,0.87,108,1925,Correct
4F4K_congruent,43,221,1,107,83.65,68.31,0.09,1.07,107,1015,Correct
4F4K_congruent,43,222,1,107,47.52,24.93,0.05,0.39,115,1350,Incorrect
4F4K_congruent,43,223,2,97,24.93,53.39,0.03,0.84,97,1322,Correct
4F4K_congruent,43,224,1,115,53.33,81.9,0.06,1.29,107,3492,Incorrect
4F4K_congruent,43,225,2,97,41.74,57.75,0.05,0.91,97,3091,Correct
4F4K_congruent,43,226,1,115,38.17,64.04,0.04,1.01,115,2716,Correct
4F4K_congruent,43,227,1,107,84.69,62.52,0.09,0.98,107,765,Correct
4F4K_congruent,43,228,2,97,46.51,54.24,0.05,0.85,97,2801,Correct
4F4K_congruent,43,229,2,97,30.54,53.89,0.03,0.85,97,991,Correct
4F4K_congruent,43,230,1,115,55.84,71.71,0.06,1.13,115,2454,Correct
4F4K_congruent,43,231,1,115,48.47,61.28,0.05,0.96,115,8311,Correct
4F4K_congruent,43,232,2,97,45.61,60.93,0.05,0.96,97,2729,Correct
4F4K_congruent,43,233,1,115,21.69,48.17,0.02,0.76,115,1010,Correct
4F4K_congruent,43,234,1,107,38.31,12.81,0.04,0.2,107,4981,Correct
4F4K_congruent,43,235,2,97,42.8,52.07,0.05,0.82,108,1137,Incorrect
4F4K_congruent,43,236,2,108,43.55,19.92,0.05,0.31,97,905,Incorrect
4F4K_congruent,43,237,2,97,32.79,65.51,0.04,1.03,108,15347,Incorrect
4F4K_congruent,43,238,1,115,65.36,83.3,0.07,1.31,107,1021,Incorrect
4F4K_congruent,43,239,1,115,20.06,43.9,0.02,0.69,115,771,Correct
4F4K_congruent,43,240,1,115,49.19,73.08,0.06,1.15,115,1470,Correct
4F4K_congruent,43,241,2,108,51.53,36.53,0.06,0.57,97,10689,Incorrect
4F4K_congruent,43,242,1,115,31.46,43.02,0.04,0.68,115,804,Correct
4F4K_congruent,43,243,2,97,58.9,69.34,0.07,1.09,108,2162,Incorrect
4F4K_congruent,43,244,1,107,53.3,31.76,0.06,0.5,107,3986,Correct
4F4K_congruent,43,245,1,115,51.57,78.47,0.06,1.23,107,876,Incorrect
4F4K_congruent,43,246,2,108,64.73,41.35,0.07,0.65,108,1838,Correct
4F4K_congruent,43,247,2,108,37.11,19.83,0.04,0.31,97,1623,Incorrect
4F4K_congruent,43,248,1,107,80.49,64.11,0.09,1.01,107,743,Correct
4F4K_congruent,43,249,1,107,62.38,39.81,0.07,0.63,107,4108,Correct
4F4K_congruent,43,250,1,115,55.03,67.06,0.06,1.05,115,1693,Correct
4F4K_congruent,43,251,2,97,12.88,36.65,0.01,0.58,97,715,Correct
4F4K_congruent,43,252,2,108,30.73,16.45,0.03,0.26,97,2801,Incorrect
4F4K_congruent,43,253,2,97,62.73,83.41,0.07,1.31,108,2300,Incorrect
4F4K_congruent,43,254,1,107,53.82,45.73,0.06,0.72,107,2601,Correct
4F4K_congruent,43,255,1,115,57.77,79.43,0.06,1.25,115,2405,Correct
4F4K_congruent,43,256,1,115,55.75,78.57,0.06,1.23,115,1502,Correct
4F4K_congruent,43,257,2,97,50.85,76.19,0.06,1.2,97,1168,Correct
4F4K_congruent,43,258,1,115,25.15,50.42,0.03,0.79,115,2990,Correct
4F4K_congruent,43,259,1,107,74.23,53.65,0.08,0.84,107,1145,Correct
4F4K_congruent,43,260,1,107,57.74,43.27,0.06,0.68,115,2053,Incorrect
4F4K_congruent,43,261,1,107,39.71,20.15,0.04,0.32,107,936,Correct
4F4K_congruent,43,262,2,108,33.48,21.68,0.04,0.34,108,5866,Correct
4F4K_congruent,43,263,1,115,14.95,42.2,0.02,0.66,115,1695,Correct
4F4K_congruent,43,264,1,115,34.15,57.78,0.04,0.91,115,4268,Correct
4F4K_congruent,43,265,1,107,33.68,20.31,0.04,0.32,107,4992,Correct
4F4K_congruent,43,266,2,97,54.25,74.83,0.06,1.18,108,947,Incorrect
4F4K_congruent,43,267,2,108,59.45,49.94,0.07,0.78,108,1405,Correct
4F4K_congruent,43,268,1,107,34.65,17.76,0.04,0.28,107,1284,Correct
4F4K_congruent,43,269,2,97,59.13,76.87,0.07,1.21,97,2173,Correct
4F4K_congruent,43,270,1,107,66.63,56.79,0.07,0.89,107,683,Correct
4F4K_congruent,43,271,2,97,43.17,65.57,0.05,1.03,108,2894,Incorrect
4F4K_congruent,43,272,2,108,54.67,27.92,0.06,0.44,108,780,Correct
4F4K_congruent,43,273,2,97,11.02,31.52,0.01,0.5,97,875,Correct
4F4K_congruent,43,274,2,97,16.64,31.49,0.02,0.49,97,714,Correct
4F4K_congruent,43,275,1,115,46.13,53.08,0.05,0.83,107,1492,Incorrect
4F4K_congruent,43,276,2,108,70.34,43.27,0.08,0.68,108,4172,Correct
4F4K_congruent,43,277,1,115,31.32,44.56,0.04,0.7,115,989,Correct
4F4K_congruent,43,278,2,97,66.18,79.66,0.07,1.25,108,906,Incorrect
4F4K_congruent,43,279,2,97,48.88,66.75,0.05,1.05,108,3493,Incorrect
4F4K_congruent,43,280,1,107,51.26,39.57,0.06,0.62,107,1028,Correct
4F4K_congruent,43,281,1,107,86.12,69.72,0.1,1.1,107,773,Correct
4F4K_congruent,43,282,1,107,42.99,31.14,0.05,0.49,107,8280,Correct
4F4K_congruent,43,283,1,107,73.58,56.47,0.08,0.89,107,1504,Correct
4F4K_congruent,43,284,1,115,27.88,43.41,0.03,0.68,115,710,Correct
4F4K_congruent,43,285,1,107,71.7,44.32,0.08,0.7,107,929,Correct
4F4K_congruent,43,286,2,97,15.1,34.84,0.02,0.55,97,730,Correct
4F4K_congruent,43,287,1,115,54.93,81.92,0.06,1.29,107,1079,Incorrect
4F4K_congruent,43,288,1,107,52.18,24.75,0.06,0.39,107,626,Correct
4F4K_congruent,43,289,2,97,54.5,61.68,0.06,0.97,108,5237,Incorrect
4F4K_congruent,43,290,2,97,47.51,76.57,0.05,1.2,97,6304,Correct
4F4K_congruent,43,291,2,108,62.42,34.41,0.07,0.54,108,9152,Correct
4F4K_congruent,43,292,2,108,86.67,69.88,0.1,1.1,108,1034,Correct
4F4K_congruent,43,293,2,108,48.95,38.06,0.05,0.6,108,3709,Correct
4F4K_congruent,43,294,1,107,40.12,12.89,0.04,0.2,107,1272,Correct
4F4K_congruent,43,295,2,108,56.17,26.51,0.06,0.42,108,2568,Correct
4F4K_congruent,43,296,1,107,65.11,49.62,0.07,0.78,107,1371,Correct
4F4K_congruent,43,297,1,115,55.4,83.36,0.06,1.31,115,955,Correct
4F4K_congruent,43,298,2,108,82.66,58.2,0.09,0.91,108,1467,Correct
4F4K_congruent,43,299,1,107,80.13,48.45,0.09,0.76,107,1010,Correct
4F4K_congruent,43,300,1,115,21.25,44.34,0.02,0.7,115,1062,Correct
4F4K_congruent,43,301,2,97,57.08,84.52,0.06,1.33,97,6497,Correct
4F4K_congruent,43,302,2,97,46.23,71.76,0.05,1.13,108,3400,Incorrect
4F4K_congruent,43,303,2,108,38.97,30.18,0.04,0.47,97,1108,Incorrect
4F4K_congruent,43,304,1,115,34.67,57.96,0.04,0.91,107,4907,Incorrect
4F4K_congruent,43,305,1,107,37.04,11.53,0.04,0.18,107,802,Correct
4F4K_congruent,43,306,2,108,77.63,65.89,0.09,1.03,108,801,Correct
4F4K_congruent,43,307,2,97,62.1,74.08,0.07,1.16,97,2413,Correct
4F4K_congruent,43,308,2,108,54.62,41.87,0.06,0.66,108,2015,Correct
4F4K_congruent,43,309,1,107,48.47,36.3,0.05,0.57,107,2151,Correct
4F4K_congruent,43,310,1,107,50.3,27.33,0.06,0.43,107,907,Correct
4F4K_congruent,43,311,1,115,30.7,56.46,0.03,0.89,115,2346,Correct
4F4K_congruent,43,312,1,107,46.31,24.35,0.05,0.38,107,2117,Correct
4F4K_congruent,43,313,2,108,66.1,44.98,0.07,0.71,108,784,Correct
4F4K_congruent,43,314,1,115,23.3,52.35,0.03,0.82,115,735,Correct
4F4K_congruent,43,315,2,108,53.86,40.73,0.06,0.64,97,3998,Incorrect
4F4K_congruent,43,316,2,108,43.3,35.77,0.05,0.56,108,2684,Correct
4F4K_congruent,43,317,2,97,14.48,35.93,0.02,0.56,97,2068,Correct
4F4K_congruent,43,318,2,108,52.17,27.37,0.06,0.43,108,4298,Correct
4F4K_congruent,43,319,1,115,22.55,41.4,0.03,0.65,115,714,Correct
4F4K_congruent,43,320,2,97,25.28,37.99,0.03,0.6,97,2990,Correct
4F4K_congruent,43,321,1,115,47.04,67.99,0.05,1.07,115,2435,Correct
4F4K_congruent,43,322,2,108,60.08,35.16,0.07,0.55,108,798,Correct
4F4K_congruent,43,323,2,108,61.28,48.32,0.07,0.76,108,5406,Correct
4F4K_congruent,43,324,1,115,58.85,75.22,0.07,1.18,115,1330,Correct
4F4K_congruent,43,325,1,115,50.44,67.38,0.06,1.06,115,4374,Correct
4F4K_congruent,43,326,1,107,66.27,51.95,0.07,0.82,107,795,Correct
4F4K_congruent,43,327,2,108,69.32,46.08,0.08,0.72,108,877,Correct
4F4K_congruent,43,328,2,97,56.55,67.7,0.06,1.06,108,759,Incorrect
4F4K_congruent,43,329,1,115,18.22,35.3,0.02,0.55,115,730,Correct
4F4K_congruent,43,330,2,97,17.16,41.98,0.02,0.66,97,899,Correct
4F4K_congruent,43,331,1,115,49.79,69.62,0.06,1.09,107,815,Incorrect
4F4K_congruent,43,332,1,107,82.51,61.28,0.09,0.96,107,796,Correct
4F4K_congruent,43,333,2,97,57.85,67.14,0.06,1.05,97,2397,Correct
4F4K_congruent,43,334,1,107,65.7,50.54,0.07,0.79,107,3157,Correct
4F4K_congruent,43,335,2,108,71.96,61.27,0.08,0.96,108,1011,Correct
4F4K_congruent,43,336,1,107,59.37,52.5,0.07,0.82,107,842,Correct
4F4K_congruent,43,337,2,108,75.95,64.7,0.08,1.02,108,621,Correct
4F4K_congruent,43,338,1,115,53.12,75.38,0.06,1.18,107,690,Incorrect
4F4K_congruent,43,339,2,108,62.25,50.88,0.07,0.8,108,740,Correct
4F4K_congruent,43,340,1,107,66.61,58.14,0.07,0.91,107,789,Correct
4F4K_congruent,43,341,2,108,61.22,41.03,0.07,0.64,108,2645,Correct
4F4K_congruent,43,342,1,115,15.65,37.0,0.02,0.58,115,639,Correct
4F4K_congruent,43,343,1,107,72.16,42.58,0.08,0.67,107,3949,Correct
4F4K_congruent,43,344,2,108,72.77,44.11,0.08,0.69,108,901,Correct
4F4K_congruent,43,345,1,107,83.5,62.37,0.09,0.98,107,1910,Correct
4F4K_congruent,43,346,1,107,65.39,42.15,0.07,0.66,107,3454,Correct
4F4K_congruent,43,347,1,107,77.9,54.33,0.09,0.85,107,930,Correct
4F4K_congruent,43,348,2,97,41.28,49.37,0.05,0.78,97,2041,Correct
4F4K_congruent,43,349,1,115,56.73,75.5,0.06,1.19,115,2775,Correct
4F4K_congruent,43,350,1,115,34.81,60.81,0.04,0.96,115,1147,Correct
4F4K_congruent,43,351,2,108,79.05,54.47,0.09,0.86,108,724,Correct
4F4K_congruent,43,352,2,108,78.27,51.72,0.09,0.81,108,820,Correct
4F4K_congruent,43,353,2,97,53.79,63.78,0.06,1.0,97,3322,Correct
4F4K_congruent,43,354,1,107,64.22,48.14,0.07,0.76,107,683,Correct
4F4K_congruent,43,355,2,108,89.49,66.94,0.1,1.05,108,759,Correct
4F4K_congruent,43,356,1,115,67.38,87.94,0.08,1.38,115,1235,Correct
4F4K_congruent,43,357,2,97,32.04,50.47,0.04,0.79,97,684,Correct
4F4K_congruent,43,358,1,107,55.58,35.42,0.06,0.56,107,2168,Correct
4F4K_congruent,43,359,2,108,48.73,26.5,0.05,0.42,108,813,Correct
4F4K_congruent,43,360,1,107,76.78,58.25,0.09,0.92,107,3672,Correct
4F4K_congruent,43,361,1,115,22.04,40.21,0.02,0.63,115,695,Correct
4F4K_congruent,43,362,2,108,69.8,40.44,0.08,0.64,108,1555,Correct
4F4K_congruent,43,363,1,107,81.54,61.09,0.09,0.96,107,5500,Correct
4F4K_congruent,43,364,1,115,30.71,56.17,0.03,0.88,115,626,Correct
4F4K_congruent,43,365,1,107,69.03,51.54,0.08,0.81,107,1153,Correct
4F4K_congruent,43,366,2,108,58.09,31.9,0.07,0.5,108,3871,Correct
4F4K_congruent,43,367,1,115,54.79,78.66,0.06,1.24,115,1990,Correct
4F4K_congruent,43,368,1,115,49.69,79.01,0.06,1.24,97,1546,Correct
4F4K_congruent,43,369,1,115,57.71,71.76,0.06,1.13,115,2638,Correct
4F4K_congruent,43,370,2,108,77.14,54.53,0.09,0.86,108,1967,Correct
4F4K_congruent,43,371,1,115,54.76,65.88,0.06,1.03,107,3401,Incorrect
4F4K_congruent,43,372,2,108,73.74,49.09,0.08,0.77,108,1572,Correct
4F4K_congruent,43,373,1,107,87.15,60.21,0.1,0.95,115,1849,Incorrect
4F4K_congruent,43,374,2,97,12.61,34.59,0.01,0.54,97,809,Correct
4F4K_congruent,43,375,2,97,14.63,39.01,0.02,0.61,97,1162,Correct
4F4K_congruent,43,376,2,108,68.74,41.34,0.08,0.65,108,1284,Correct
4F4K_congruent,43,377,2,108,32.24,11.38,0.04,0.18,108,2390,Correct
4F4K_congruent,43,378,2,108,49.87,32.67,0.06,0.51,108,10062,Correct
4F4K_congruent,43,379,2,108,77.46,65.89,0.09,1.03,97,1765,Incorrect
4F4K_congruent,43,380,1,115,14.15,34.44,0.02,0.54,115,722,Correct
4F4K_congruent,43,381,1,107,35.07,14.25,0.04,0.22,107,1092,Correct
4F4K_congruent,43,382,1,107,64.19,51.65,0.07,0.81,107,1363,Correct
4F4K_congruent,43,383,2,97,23.36,39.68,0.03,0.62,108,2595,Incorrect
4F4K_congruent,43,384,1,115,21.58,37.32,0.02,0.59,115,902,Correct
4F4K_congruent,43,385,2,97,46.43,69.49,0.05,1.09,108,2087,Incorrect
4F4K_congruent,43,386,1,107,45.92,37.77,0.05,0.59,107,1499,Correct
4F4K_congruent,43,387,2,97,39.65,46.88,0.04,0.74,108,1953,Incorrect
4F4K_congruent,43,388,1,107,53.0,26.01,0.06,0.41,107,678,Correct
4F4K_congruent,43,389,1,115,57.14,79.31,0.06,1.25,115,1666,Correct
4F4K_congruent,43,390,1,115,45.72,64.32,0.05,1.01,107,3143,Incorrect
4F4K_congruent,43,391,1,107,42.03,24.73,0.05,0.39,107,1972,Correct
4F4K_congruent,43,392,1,115,46.08,61.7,0.05,0.97,115,5935,Correct
4F4K_congruent,43,393,2,97,46.93,55.06,0.05,0.86,108,1920,Incorrect
4F4K_congruent,43,394,1,115,63.61,83.63,0.07,1.31,107,757,Incorrect
4F4K_congruent,43,395,2,108,73.75,44.72,0.08,0.7,108,1831,Correct
4F4K_congruent,43,396,1,107,66.85,56.33,0.07,0.88,107,3596,Correct
4F4K_congruent,43,397,1,107,35.3,22.08,0.04,0.35,115,1151,Incorrect
4F4K_congruent,43,398,2,97,29.2,38.59,0.03,0.61,97,1775,Correct
