condition,subject,trial,sub_task,cat,x,y,xt,yt,resp,rt,fb
4F4K_incongruent,116,0,1,107,78.02,59.74,0.09,0.94,107,1650,Correct
4F4K_incongruent,116,1,1,107,44.63,16.07,0.05,0.25,115,1625,Incorrect
4F4K_incongruent,116,2,2,97,39.23,13.95,0.04,0.22,108,1593,Incorrect
4F4K_incongruent,116,3,1,107,37.01,19.68,0.04,0.31,115,1629,Incorrect
4F4K_incongruent,116,4,2,97,71.45,55.01,0.08,0.86,108,1544,Incorrect
4F4K_incongruent,116,5,1,107,57.95,39.57,0.06,0.62,115,3215,Incorrect
4F4K_incongruent,116,6,1,107,54.2,34.03,0.06,0.53,107,2753,Correct
4F4K_incongruent,116,7,2,108,60.86,73.97,0.07,1.16,108,2561,Correct
4F4K_incongruent,116,8,2,108,18.42,33.0,0.02,0.52,97,7984,Incorrect
4F4K_incongruent,116,9,2,108,62.69,83.2,0.07,1.31,108,3530,Correct
4F4K_incongruent,116,10,2,108,35.67,55.76,0.04,0.88,108,3059,Correct
4F4K_incongruent,116,11,2,97,86.88,65.83,0.1,1.03,97,1922,Correct
4F4K_incongruent,116,12,1,107,70.67,59.8,0.08,0.94,107,2800,Correct
4F4K_incongruent,116,13,2,108,42.46,71.7,0.05,1.13,108,1061,Correct
4F4K_incongruent,116,14,1,107,83.78,68.67,0.09,1.08,115,3346,Incorrect
4F4K_incongruent,116,15,1,107,57.24,49.71,0.06,0.78,107,3669,Correct
4F4K_incongruent,116,16,1,115,15.58,44.22,0.02,0.69,115,2883,Correct
4F4K_incongruent,116,17,2,108,47.45,65.5,0.05,1.03,97,2437,Incorrect
4F4K_incongruent,116,18,2,97,37.09,14.6,0.04,0.23,97,4735,Correct
4F4K_incongruent,116,19,2,97,32.38,19.92,0.04,0.31,97,4385,Correct
4F4K_incongruent,116,20,1,107,46.62,26.97,0.05,0.42,107,4758,Correct
4F4K_incongruent,116,21,2,97,60.75,42.25,0.07,0.66,97,2784,Correct
4F4K_incongruent,116,22,2,108,34.49,59.26,0.04,0.93,108,3970,Correct
4F4K_incongruent,116,23,1,107,43.42,17.67,0.05,0.28,107,8072,Correct
4F4K_incongruent,116,24,1,107,49.26,22.4,0.06,0.35,115,2330,Incorrect
4F4K_incongruent,116,25,2,108,60.32,70.55,0.07,1.11,97,2816,Incorrect
4F4K_incongruent,116,26,2,108,30.23,53.02,0.03,0.83,97,2832,Incorrect
4F4K_incongruent,116,27,1,107,52.67,28.74,0.06,0.45,115,1653,Incorrect
4F4K_incongruent,116,28,2,108,49.53,64.08,0.06,1.01,108,1718,Correct
4F4K_incongruent,116,29,2,97,66.66,51.1,0.07,0.8,108,1818,Incorrect
4F4K_incongruent,116,30,1,115,52.0,82.45,0.06,1.3,107,2523,Incorrect
4F4K_incongruent,116,31,1,107,61.81,31.16,0.07,0.49,115,2906,Incorrect
4F4K_incongruent,116,32,1,107,84.27,66.19,0.09,1.04,107,1132,Correct
4F4K_incongruent,116,33,2,97,46.48,36.55,0.05,0.57,108,3335,Incorrect
4F4K_incongruent,116,34,1,107,85.59,69.67,0.1,1.09,107,237,Correct
4F4K_incongruent,116,35,2,97,85.54,66.83,0.1,1.05,97,1722,Correct
4F4K_incongruent,116,36,2,97,86.39,64.01,0.1,1.01,97,1217,Correct
4F4K_incongruent,116,37,2,108,46.27,70.56,0.05,1.11,108,3332,Correct
4F4K_incongruent,116,38,1,115,65.05,88.7,0.07,1.39,107,1986,Incorrect
4F4K_incongruent,116,39,1,107,40.32,20.1,0.05,0.32,115,1009,Incorrect
4F4K_incongruent,116,40,2,97,57.95,42.14,0.06,0.66,108,2283,Incorrect
4F4K_incongruent,116,41,2,97,67.96,40.39,0.08,0.63,97,987,Correct
4F4K_incongruent,116,42,1,115,51.61,77.66,0.06,1.22,115,1260,Correct
4F4K_incongruent,116,43,2,108,58.27,70.21,0.07,1.1,97,2957,Incorrect
4F4K_incongruent,116,44,2,97,86.81,60.95,0.1,0.96,108,4194,Incorrect
4F4K_incongruent,116,45,2,108,51.23,63.74,0.06,1.0,108,1542,Correct
4F4K_incongruent,116,46,1,107,61.84,53.65,0.07,0.84,107,1683,Correct
4F4K_incongruent,116,47,2,108,42.39,64.63,0.05,1.02,97,5084,Incorrect
4F4K_incongruent,116,48,1,107,59.62,47.61,0.07,0.75,107,972,Correct
4F4K_incongruent,116,49,2,108,25.23,54.35,0.03,0.85,97,6366,Incorrect
4F4K_incongruent,116,50,2,108,25.2,54.07,0.03,0.85,108,1112,Correct
4F4K_incongruent,116,51,2,108,37.76,61.15,0.04,0.96,108,4200,Correct
4F4K_incongruent,116,52,1,115,37.55,49.27,0.04,0.77,107,1681,Incorrect
4F4K_incongruent,116,53,1,107,75.21,53.73,0.08,0.84,115,3796,Incorrect
4F4K_incongruent,116,54,1,115,51.4,63.27,0.06,0.99,107,801,Incorrect
4F4K_incongruent,116,55,1,107,66.38,47.1,0.07,0.74,115,972,Incorrect
4F4K_incongruent,116,56,2,108,36.34,54.53,0.04,0.86,97,1804,Incorrect
4F4K_incongruent,116,57,2,97,76.08,53.57,0.09,0.84,108,1539,Incorrect
4F4K_incongruent,116,58,1,107,74.22,49.5,0.08,0.78,107,4392,Correct
4F4K_incongruent,116,59,1,115,29.35,61.63,0.03,0.97,115,2098,Correct
4F4K_incongruent,116,60,1,115,50.28,70.33,0.06,1.1,115,1131,Correct
4F4K_incongruent,116,61,2,108,22.17,52.92,0.02,0.83,108,1332,Correct
4F4K_incongruent,116,62,2,97,61.3,50.56,0.07,0.79,97,1238,Correct
4F4K_incongruent,116,63,2,97,86.37,64.87,0.1,1.02,97,2801,Correct
4F4K_incongruent,116,64,1,107,39.64,26.43,0.04,0.42,115,1809,Incorrect
4F4K_incongruent,116,65,2,97,42.45,13.93,0.05,0.22,97,2111,Correct
4F4K_incongruent,116,66,2,108,48.57,76.87,0.05,1.21,97,1287,Incorrect
4F4K_incongruent,116,67,1,107,51.59,23.98,0.06,0.38,107,1208,Correct
4F4K_incongruent,116,68,1,107,55.24,28.2,0.06,0.44,107,1432,Correct
4F4K_incongruent,116,69,1,115,18.93,40.0,0.02,0.63,115,1008,Correct
4F4K_incongruent,116,70,2,97,86.16,60.05,0.1,0.94,97,1345,Correct
4F4K_incongruent,116,71,1,115,23.78,44.91,0.03,0.71,115,818,Correct
4F4K_incongruent,116,72,1,115,61.24,70.76,0.07,1.11,115,2403,Correct
4F4K_incongruent,116,73,1,107,88.42,65.68,0.1,1.03,115,829,Incorrect
4F4K_incongruent,116,74,1,115,28.55,55.02,0.03,0.86,107,1211,Incorrect
4F4K_incongruent,116,75,2,108,59.43,83.1,0.07,1.31,97,4008,Incorrect
4F4K_incongruent,116,76,1,107,80.96,65.23,0.09,1.02,107,989,Correct
4F4K_incongruent,116,77,2,108,33.58,62.24,0.04,0.98,97,1248,Incorrect
4F4K_incongruent,116,78,1,115,56.13,69.15,0.06,1.09,107,857,Incorrect
4F4K_incongruent,116,79,2,108,37.68,64.8,0.04,1.02,97,887,Incorrect
4F4K_incongruent,116,80,2,108,55.84,63.76,0.06,1.0,108,651,Correct
4F4K_incongruent,116,81,2,97,44.61,20.44,0.05,0.32,97,954,Correct
4F4K_incongruent,116,82,1,107,65.88,43.22,0.07,0.68,115,1144,Incorrect
4F4K_incongruent,116,83,2,108,51.34,78.38,0.06,1.23,108,4846,Correct
4F4K_incongruent,116,84,1,107,60.95,45.72,0.07,0.72,107,1651,Correct
4F4K_incongruent,116,85,2,108,62.12,71.11,0.07,1.12,97,798,Incorrect
4F4K_incongruent,116,86,1,107,42.36,31.53,0.05,0.5,107,1495,Correct
4F4K_incongruent,116,87,2,97,67.12,54.57,0.08,0.86,108,1876,Incorrect
4F4K_incongruent,116,88,2,97,63.44,50.99,0.07,0.8,97,937,Correct
4F4K_incongruent,116,89,2,108,26.34,43.88,0.03,0.69,97,5088,Incorrect
4F4K_incongruent,116,90,1,107,37.98,26.75,0.04,0.42,115,1453,Incorrect
4F4K_incongruent,116,91,2,108,45.93,74.31,0.05,1.17,97,1003,Incorrect
4F4K_incongruent,116,92,1,107,50.35,29.68,0.06,0.47,107,784,Correct
4F4K_incongruent,116,93,2,108,34.82,61.06,0.04,0.96,97,4612,Correct
4F4K_incongruent,116,94,2,97,63.9,51.96,0.07,0.82,108,1580,Incorrect
4F4K_incongruent,116,95,2,97,73.54,51.0,0.08,0.8,97,1148,Correct
4F4K_incongruent,116,96,1,107,45.54,35.86,0.05,0.56,115,1359,Incorrect
4F4K_incongruent,116,97,1,115,31.28,45.34,0.03,0.71,107,1224,Incorrect
4F4K_incongruent,116,98,2,108,37.96,68.85,0.04,1.08,108,1440,Correct
4F4K_incongruent,116,99,1,115,35.14,54.31,0.04,0.85,115,988,Correct
4F4K_incongruent,116,100,1,115,47.61,54.85,0.05,0.86,115,876,Correct
4F4K_incongruent,116,101,1,115,40.79,69.93,0.05,1.1,115,768,Correct
4F4K_incongruent,116,102,2,97,37.41,21.29,0.04,0.33,108,3911,Incorrect
4F4K_incongruent,116,103,1,115,40.01,54.85,0.04,0.86,115,570,Correct
4F4K_incongruent,116,104,2,97,69.26,38.0,0.08,0.6,97,952,Correct
4F4K_incongruent,116,105,2,97,67.22,47.39,0.08,0.74,97,1638,Correct
4F4K_incongruent,116,106,1,107,69.54,59.88,0.08,0.94,115,3266,Incorrect
4F4K_incongruent,116,107,1,107,36.83,22.73,0.04,0.36,115,1032,Incorrect
4F4K_incongruent,116,108,2,97,73.73,63.57,0.08,1.0,97,2344,Correct
4F4K_incongruent,116,109,1,115,19.18,43.84,0.02,0.69,107,1918,Incorrect
4F4K_incongruent,116,110,2,108,47.06,68.75,0.05,1.08,97,1471,Incorrect
4F4K_incongruent,116,111,2,97,43.62,29.56,0.05,0.46,97,2892,Correct
4F4K_incongruent,116,112,2,108,39.85,58.38,0.04,0.92,108,960,Correct
4F4K_incongruent,116,113,1,115,22.07,54.02,0.02,0.85,115,1781,Correct
4F4K_incongruent,116,114,2,97,40.07,15.03,0.04,0.24,97,2441,Correct
4F4K_incongruent,116,115,1,107,53.92,27.71,0.06,0.44,115,1368,Incorrect
4F4K_incongruent,116,116,1,115,62.06,72.17,0.07,1.13,107,1388,Incorrect
4F4K_incongruent,116,117,2,97,52.88,25.72,0.06,0.4,97,1724,Correct
4F4K_incongruent,116,118,1,115,23.84,40.79,0.03,0.64,115,2548,Correct
4F4K_incongruent,116,119,2,108,30.35,42.37,0.03,0.67,108,1884,Correct
4F4K_incongruent,116,120,2,97,74.73,60.21,0.08,0.95,97,1777,Correct
4F4K_incongruent,116,121,1,107,60.78,34.45,0.07,0.54,107,2780,Correct
4F4K_incongruent,116,122,2,108,50.36,60.24,0.06,0.95,97,1212,Incorrect
4F4K_incongruent,116,123,1,107,40.45,16.74,0.05,0.26,107,1228,Correct
4F4K_incongruent,116,124,2,108,37.38,54.77,0.04,0.86,108,1369,Correct
4F4K_incongruent,116,125,1,115,52.31,59.84,0.06,0.94,107,1541,Incorrect
4F4K_incongruent,116,126,2,97,77.54,49.48,0.09,0.78,97,1407,Correct
4F4K_incongruent,116,127,1,115,24.06,40.3,0.03,0.63,107,1412,Incorrect
4F4K_incongruent,116,128,2,108,36.61,46.76,0.04,0.73,108,2042,Correct
4F4K_incongruent,116,129,2,97,33.88,19.06,0.04,0.3,107,1107,Incorrect
4F4K_incongruent,116,130,2,108,40.62,51.1,0.05,0.8,97,1112,Incorrect
4F4K_incongruent,116,131,2,108,55.47,80.81,0.06,1.27,108,2107,Correct
4F4K_incongruent,116,132,1,115,61.08,82.91,0.07,1.3,115,1906,Correct
4F4K_incongruent,116,133,1,115,25.94,42.28,0.03,0.66,107,1178,Incorrect
4F4K_incongruent,116,134,2,97,40.51,25.8,0.05,0.41,97,2663,Correct
4F4K_incongruent,116,135,2,108,34.6,61.52,0.04,0.97,97,2408,Incorrect
4F4K_incongruent,116,136,1,115,55.21,83.69,0.06,1.31,115,5586,Correct
4F4K_incongruent,116,137,1,107,62.27,44.16,0.07,0.69,107,1546,Correct
4F4K_incongruent,116,138,1,107,75.49,56.45,0.08,0.89,107,981,Correct
4F4K_incongruent,116,139,2,97,57.43,25.18,0.06,0.4,97,1516,Correct
4F4K_incongruent,116,140,1,107,70.6,45.19,0.08,0.71,107,1740,Correct
4F4K_incongruent,116,141,2,97,77.36,60.21,0.09,0.95,97,2305,Correct
4F4K_incongruent,116,142,2,108,37.75,47.18,0.04,0.74,108,2009,Correct
4F4K_incongruent,116,143,1,115,38.37,53.65,0.04,0.84,115,1100,Correct
4F4K_incongruent,116,144,1,115,35.83,57.21,0.04,0.9,115,1502,Correct
4F4K_incongruent,116,145,2,97,33.94,20.49,0.04,0.32,108,1904,Incorrect
4F4K_incongruent,116,146,1,115,47.02,55.98,0.05,0.88,107,2537,Incorrect
4F4K_incongruent,116,147,2,97,45.95,22.97,0.05,0.36,97,944,Correct
4F4K_incongruent,116,148,1,107,54.65,39.37,0.06,0.62,107,2208,Correct
4F4K_incongruent,116,149,2,97,73.47,41.27,0.08,0.65,97,814,Correct
4F4K_incongruent,116,150,2,97,61.0,29.4,0.07,0.46,97,526,Correct
4F4K_incongruent,116,151,1,115,59.42,75.62,0.07,1.19,107,4741,Incorrect
4F4K_incongruent,116,152,2,108,42.88,59.56,0.05,0.94,108,2007,Correct
4F4K_incongruent,116,153,1,115,55.61,71.8,0.06,1.13,115,1708,Correct
4F4K_incongruent,116,154,2,97,67.32,43.77,0.08,0.69,97,1596,Correct
4F4K_incongruent,116,155,2,97,55.04,30.18,0.06,0.47,97,1824,Correct
4F4K_incongruent,116,156,2,108,51.11,73.04,0.06,1.15,108,2039,Correct
4F4K_incongruent,116,157,1,107,48.98,31.54,0.05,0.5,107,2964,Correct
4F4K_incongruent,116,158,1,107,76.39,46.23,0.09,0.73,107,4659,Correct
4F4K_incongruent,116,159,1,107,76.78,53.11,0.09,0.83,107,1129,Correct
4F4K_incongruent,116,160,1,115,48.97,56.63,0.05,0.89,115,2433,Correct
4F4K_incongruent,116,161,1,107,51.24,43.38,0.06,0.68,107,1698,Correct
4F4K_incongruent,116,162,2,97,33.08,19.27,0.04,0.3,108,1121,Incorrect
4F4K_incongruent,116,163,2,108,36.56,47.66,0.04,0.75,108,1795,Correct
4F4K_incongruent,116,164,2,108,37.37,57.57,0.04,0.9,108,2897,Correct
4F4K_incongruent,116,165,1,107,71.34,53.06,0.08,0.83,107,2189,Correct
4F4K_incongruent,116,166,1,115,48.18,66.38,0.05,1.04,115,1591,Correct
4F4K_incongruent,116,167,1,115,49.35,69.25,0.06,1.09,115,1005,Correct
4F4K_incongruent,116,168,1,115,59.67,86.22,0.07,1.35,107,1204,Incorrect
4F4K_incongruent,116,169,2,97,66.56,47.15,0.07,0.74,97,1827,Correct
4F4K_incongruent,116,170,1,107,62.61,55.04,0.07,0.86,115,1747,Incorrect
4F4K_incongruent,116,171,1,115,22.09,48.96,0.02,0.77,115,1862,Correct
4F4K_incongruent,116,172,1,115,15.32,38.36,0.02,0.6,115,1843,Correct
4F4K_incongruent,116,173,2,108,27.33,37.84,0.03,0.59,108,2777,Correct
4F4K_incongruent,116,174,2,108,53.39,63.28,0.06,0.99,97,1471,Incorrect
4F4K_incongruent,116,175,1,107,65.5,40.96,0.07,0.64,107,2070,Correct
4F4K_incongruent,116,176,1,107,56.64,43.56,0.06,0.68,107,4213,Correct
4F4K_incongruent,116,177,2,97,76.72,59.34,0.09,0.93,97,1222,Correct
4F4K_incongruent,116,178,1,115,49.58,58.6,0.06,0.92,107,2007,Incorrect
4F4K_incongruent,116,179,1,115,37.42,52.11,0.04,0.82,115,1341,Correct
4F4K_incongruent,116,180,1,115,58.44,84.72,0.07,1.33,108,1417,Incorrect
4F4K_incongruent,116,181,2,97,66.92,45.45,0.07,0.71,97,1510,Correct
4F4K_incongruent,116,182,2,108,47.62,58.85,0.05,0.92,108,1161,Correct
4F4K_incongruent,116,183,2,97,76.18,62.19,0.09,0.98,108,2542,Incorrect
4F4K_incongruent,116,184,1,115,23.86,34.6,0.03,0.54,115,1248,Correct
4F4K_incongruent,116,185,1,107,84.78,68.84,0.09,1.08,107,2257,Correct
4F4K_incongruent,116,186,1,115,43.45,62.54,0.05,0.98,107,4008,Incorrect
4F4K_incongruent,116,187,1,115,64.13,83.95,0.07,1.32,107,1189,Incorrect
4F4K_incongruent,116,188,2,108,34.65,45.96,0.04,0.72,108,7269,Correct
4F4K_incongruent,116,189,2,97,75.32,44.4,0.08,0.7,97,1242,Correct
4F4K_incongruent,116,190,1,115,52.23,59.31,0.06,0.93,107,1071,Incorrect
4F4K_incongruent,116,191,2,108,31.02,63.45,0.03,1.0,97,1223,Incorrect
4F4K_incongruent,116,192,1,115,17.55,45.1,0.02,0.71,115,1339,Correct
4F4K_incongruent,116,193,1,107,39.41,27.94,0.04,0.44,107,1707,Correct
4F4K_incongruent,116,194,1,115,46.49,77.91,0.05,1.22,107,5074,Incorrect
4F4K_incongruent,116,195,1,115,52.45,77.71,0.06,1.22,115,1357,Correct
4F4K_incongruent,116,196,2,108,18.28,39.64,0.02,0.62,108,1829,Correct
4F4K_incongruent,116,197,2,97,67.24,45.11,0.08,0.71,97,901,Correct
4F4K_incongruent,116,198,1,115,57.79,66.65,0.06,1.05,115,1401,Correct
4F4K_incongruent,116,199,2,108,32.5,43.44,0.04,0.68,108,1182,Correct
4F4K_incongruent,116,200,2,108,24.44,52.09,0.03,0.82,108,901,Correct
4F4K_incongruent,116,201,2,97,75.33,59.77,0.08,0.94,97,1132,Correct
4F4K_incongruent,116,202,1,107,54.97,43.97,0.06,0.69,115,2362,Incorrect
4F4K_incongruent,116,203,1,107,35.4,19.08,0.04,0.3,107,930,Correct
4F4K_incongruent,116,204,1,115,34.37,62.57,0.04,0.98,115,1103,Correct
4F4K_incongruent,116,205,2,108,63.57,88.34,0.07,1.39,108,1586,Correct
4F4K_incongruent,116,206,2,108,11.58,37.51,0.01,0.59,97,3904,Incorrect
4F4K_incongruent,116,207,2,97,85.15,67.16,0.1,1.05,97,891,Correct
4F4K_incongruent,116,208,2,108,45.69,72.76,0.05,1.14,97,1063,Incorrect
4F4K_incongruent,116,209,2,97,61.33,52.68,0.07,0.83,97,705,Correct
4F4K_incongruent,116,210,2,97,37.46,28.33,0.04,0.45,97,2113,Correct
4F4K_incongruent,116,211,2,97,39.51,18.78,0.04,0.3,97,782,Correct
4F4K_incongruent,116,212,2,97,77.24,51.58,0.09,0.81,97,1256,Correct
4F4K_incongruent,116,213,2,108,35.57,62.73,0.04,0.99,108,1097,Correct
4F4K_incongruent,116,214,2,108,42.62,53.35,0.05,0.84,108,940,Correct
4F4K_incongruent,116,215,2,108,68.38,81.36,0.08,1.28,108,1447,Correct
4F4K_incongruent,116,216,2,108,22.85,40.4,0.03,0.63,108,3212,Correct
4F4K_incongruent,116,217,2,108,49.01,58.32,0.05,0.92,97,1937,Incorrect
4F4K_incongruent,116,218,1,107,54.41,40.58,0.06,0.64,107,1758,Correct
4F4K_incongruent,116,219,2,108,17.47,40.35,0.02,0.63,108,2579,Correct
4F4K_incongruent,116,220,1,115,31.43,53.14,0.04,0.83,107,2671,Incorrect
4F4K_incongruent,116,221,2,108,49.16,63.47,0.06,1.0,97,4410,Incorrect
4F4K_incongruent,116,222,2,108,57.51,76.72,0.06,1.21,108,1427,Correct
4F4K_incongruent,116,223,1,115,40.08,61.77,0.04,0.97,115,2267,Correct
4F4K_incongruent,116,224,2,108,45.03,70.27,0.05,1.1,97,1528,Incorrect
4F4K_incongruent,116,225,2,108,37.04,62.12,0.04,0.98,108,906,Correct
4F4K_incongruent,116,226,1,115,32.23,55.07,0.04,0.86,107,3429,Incorrect
4F4K_incongruent,116,227,1,107,80.6,59.52,0.09,0.93,107,3092,Correct
4F4K_incongruent,116,228,1,107,57.27,33.58,0.06,0.53,115,1018,Incorrect
4F4K_incongruent,116,229,2,108,66.53,88.61,0.07,1.39,108,1279,Correct
4F4K_incongruent,116,230,2,108,30.61,61.8,0.03,0.97,108,1604,Correct
4F4K_incongruent,116,231,1,115,36.73,64.27,0.04,1.01,115,3351,Correct
4F4K_incongruent,116,232,2,97,54.45,37.2,0.06,0.58,97,1109,Correct
4F4K_incongruent,116,233,2,97,38.68,29.38,0.04,0.46,108,1961,Incorrect
4F4K_incongruent,116,234,1,115,22.82,49.8,0.03,0.78,115,4222,Correct
4F4K_incongruent,116,235,1,107,69.85,39.97,0.08,0.63,107,1847,Correct
4F4K_incongruent,116,236,1,107,62.81,44.0,0.07,0.69,107,831,Correct
4F4K_incongruent,116,237,2,97,78.22,56.61,0.09,0.89,97,905,Correct
4F4K_incongruent,116,238,2,108,62.6,83.71,0.07,1.31,108,1324,Correct
4F4K_incongruent,116,239,1,107,71.22,48.23,0.08,0.76,107,2706,Correct
4F4K_incongruent,116,240,1,115,22.99,47.94,0.03,0.75,115,1047,Correct
4F4K_incongruent,116,241,2,108,46.97,60.04,0.05,0.94,108,2087,Correct
4F4K_incongruent,116,242,2,108,41.04,68.1,0.05,1.07,108,739,Correct
4F4K_incongruent,116,243,2,97,78.41,46.28,0.09,0.73,97,1275,Correct
4F4K_incongruent,116,244,2,97,78.33,47.64,0.09,0.75,97,1084,Correct
4F4K_incongruent,116,245,1,115,41.86,72.01,0.05,1.13,107,4272,Incorrect
4F4K_incongruent,116,246,2,97,46.54,23.73,0.05,0.37,108,8874,Incorrect
4F4K_incongruent,116,247,1,107,43.02,21.56,0.05,0.34,107,2147,Correct
4F4K_incongruent,116,248,1,115,21.09,43.13,0.02,0.68,107,2674,Incorrect
4F4K_incongruent,116,249,1,115,28.84,49.37,0.03,0.78,115,973,Correct
4F4K_incongruent,116,250,1,107,63.37,30.08,0.07,0.47,107,2045,Correct
4F4K_incongruent,116,251,1,107,68.24,51.45,0.08,0.81,107,1055,Correct
4F4K_incongruent,116,252,2,108,11.55,33.09,0.01,0.52,108,2178,Correct
4F4K_incongruent,116,253,2,108,42.08,57.53,0.05,0.9,108,1334,Correct
4F4K_incongruent,116,254,1,107,60.59,35.79,0.07,0.56,115,2298,Incorrect
4F4K_incongruent,116,255,1,115,58.91,79.63,0.07,1.25,115,5346,Correct
4F4K_incongruent,116,256,2,97,74.46,43.38,0.08,0.68,97,1388,Correct
4F4K_incongruent,116,257,1,115,48.18,62.29,0.05,0.98,115,1888,Correct
4F4K_incongruent,116,258,2,108,47.95,70.62,0.05,1.11,108,3792,Correct
4F4K_incongruent,116,259,1,107,40.71,23.46,0.05,0.37,115,4224,Incorrect
4F4K_incongruent,116,260,1,115,15.64,32.2,0.02,0.51,115,1787,Correct
4F4K_incongruent,116,261,1,107,84.5,55.73,0.09,0.88,107,1992,Correct
4F4K_incongruent,116,262,1,107,75.09,53.42,0.08,0.84,107,786,Correct
4F4K_incongruent,116,263,1,115,37.29,70.19,0.04,1.1,115,1038,Correct
4F4K_incongruent,116,264,1,107,75.01,64.04,0.08,1.01,107,1417,Correct
4F4K_incongruent,116,265,2,97,54.06,23.37,0.06,0.37,97,1792,Correct
4F4K_incongruent,116,266,1,107,67.34,58.71,0.08,0.92,115,1996,Incorrect
4F4K_incongruent,116,267,1,107,70.95,60.33,0.08,0.95,107,922,Correct
4F4K_incongruent,116,268,2,97,78.54,57.88,0.09,0.91,97,2477,Correct
4F4K_incongruent,116,269,1,115,27.31,46.14,0.03,0.72,115,2167,Correct
4F4K_incongruent,116,270,1,107,72.89,54.08,0.08,0.85,107,4629,Correct
4F4K_incongruent,116,271,1,107,49.65,28.93,0.06,0.45,115,1947,Incorrect
4F4K_incongruent,116,272,1,115,56.99,71.5,0.06,1.12,115,1320,Correct
4F4K_incongruent,116,273,1,115,43.1,74.12,0.05,1.16,115,875,Correct
4F4K_incongruent,116,274,1,115,40.08,68.65,0.04,1.08,115,786,Correct
4F4K_incongruent,116,275,2,108,33.66,58.48,0.04,0.92,108,1163,Correct
4F4K_incongruent,116,276,2,97,45.85,19.52,0.05,0.31,97,888,Correct
4F4K_incongruent,116,277,1,107,67.98,54.66,0.08,0.86,107,998,Correct
4F4K_incongruent,116,278,1,107,75.62,45.4,0.08,0.71,115,864,Incorrect
4F4K_incongruent,116,279,1,107,73.87,63.3,0.08,0.99,115,1970,Incorrect
4F4K_incongruent,116,280,1,115,36.8,62.32,0.04,0.98,115,3012,Correct
4F4K_incongruent,116,281,2,97,30.97,16.25,0.03,0.26,108,2399,Incorrect
4F4K_incongruent,116,282,1,115,35.13,58.28,0.04,0.92,115,6883,Correct
4F4K_incongruent,116,283,1,107,73.26,54.71,0.08,0.86,107,2432,Correct
4F4K_incongruent,116,284,2,108,13.35,41.67,0.01,0.65,108,1492,Correct
4F4K_incongruent,116,285,1,115,49.62,70.93,0.06,1.11,115,1297,Correct
4F4K_incongruent,116,286,1,115,34.7,67.93,0.04,1.07,115,3584,Correct
4F4K_incongruent,116,287,1,107,44.23,23.24,0.05,0.36,107,1558,Correct
4F4K_incongruent,116,288,2,108,53.8,61.07,0.06,0.96,97,4311,Incorrect
4F4K_incongruent,116,289,2,108,38.17,50.97,0.04,0.8,108,1409,Correct
4F4K_incongruent,116,290,2,108,16.26,44.33,0.02,0.7,108,5373,Correct
4F4K_incongruent,116,291,2,97,35.15,13.64,0.04,0.21,97,1372,Correct
4F4K_incongruent,116,292,1,115,35.34,63.33,0.04,0.99,115,7999,Correct
4F4K_incongruent,116,293,2,97,33.34,13.9,0.04,0.22,97,2227,Correct
4F4K_incongruent,116,294,1,107,64.34,33.05,0.07,0.52,107,1819,Correct
4F4K_incongruent,116,295,2,108,62.81,78.82,0.07,1.24,108,7936,Correct
4F4K_incongruent,116,296,2,97,76.39,46.12,0.09,0.72,97,5105,Correct
4F4K_incongruent,116,297,1,115,35.74,67.25,0.04,1.06,107,3311,Incorrect
4F4K_incongruent,116,298,2,97,60.85,40.5,0.07,0.64,108,3315,Incorrect
4F4K_incongruent,116,299,1,107,36.69,17.29,0.04,0.27,115,2995,Incorrect
4F4K_incongruent,116,300,1,107,42.63,18.35,0.05,0.29,107,1267,Correct
4F4K_incongruent,116,301,2,97,50.56,28.37,0.06,0.45,97,1007,Correct
4F4K_incongruent,116,302,2,108,24.78,40.41,0.03,0.63,108,1012,Correct
4F4K_incongruent,116,303,1,115,27.07,58.18,0.03,0.91,107,1315,Incorrect
4F4K_incongruent,116,304,2,97,47.76,30.44,0.05,0.48,97,4279,Correct
4F4K_incongruent,116,305,2,108,36.49,63.16,0.04,0.99,108,1169,Correct
4F4K_incongruent,116,306,2,108,43.31,68.11,0.05,1.07,108,2424,Correct
4F4K_incongruent,116,307,2,108,43.83,67.42,0.05,1.06,108,1120,Correct
4F4K_incongruent,116,308,1,107,43.68,31.17,0.05,0.49,107,3305,Correct
4F4K_incongruent,116,309,1,107,83.12,54.79,0.09,0.86,107,3127,Correct
4F4K_incongruent,116,310,2,108,34.91,46.51,0.04,0.73,108,3780,Correct
4F4K_incongruent,116,311,2,97,58.03,38.45,0.06,0.6,97,1420,Correct
4F4K_incongruent,116,312,2,97,55.9,27.1,0.06,0.43,97,1034,Correct
4F4K_incongruent,116,313,2,97,76.36,62.26,0.09,0.98,108,1644,Incorrect
4F4K_incongruent,116,314,2,108,22.52,51.77,0.03,0.81,108,5727,Correct
4F4K_incongruent,116,315,1,107,76.95,48.93,0.09,0.77,107,9572,Correct
4F4K_incongruent,116,316,2,108,39.11,66.25,0.04,1.04,108,7550,Correct
4F4K_incongruent,116,317,1,107,64.28,50.77,0.07,0.8,107,2685,Correct
4F4K_incongruent,116,318,2,108,18.32,39.14,0.02,0.61,108,5594,Correct
4F4K_incongruent,116,319,2,97,50.73,33.13,0.06,0.52,97,1086,Correct
4F4K_incongruent,116,320,2,97,59.72,36.31,0.07,0.57,97,1288,Correct
4F4K_incongruent,116,321,2,108,35.31,66.03,0.04,1.04,108,1046,Correct
4F4K_incongruent,116,322,2,108,47.7,75.93,0.05,1.19,108,875,Correct
4F4K_incongruent,116,323,1,107,52.04,32.51,0.06,0.51,107,2426,Correct
4F4K_incongruent,116,324,1,115,64.45,75.48,0.07,1.19,115,2581,Correct
4F4K_incongruent,116,325,1,115,26.66,49.95,0.03,0.78,115,1243,Correct
4F4K_incongruent,116,326,1,115,30.42,46.15,0.03,0.72,115,764,Correct
4F4K_incongruent,116,327,2,108,49.8,66.82,0.06,1.05,108,1166,Correct
4F4K_incongruent,116,328,2,97,35.74,13.17,0.04,0.21,97,1737,Correct
4F4K_incongruent,116,329,2,108,54.87,78.63,0.06,1.24,108,1094,Correct
4F4K_incongruent,116,330,1,107,39.59,17.3,0.04,0.27,107,2448,Correct
4F4K_incongruent,116,331,1,115,22.06,37.09,0.02,0.58,115,4410,Correct
4F4K_incongruent,116,332,1,115,19.78,33.14,0.02,0.52,115,1495,Correct
4F4K_incongruent,116,333,2,108,22.45,46.55,0.03,0.73,108,2267,Correct
4F4K_incongruent,116,334,2,108,22.43,46.75,0.03,0.73,108,843,Correct
4F4K_incongruent,116,335,1,115,45.02,66.89,0.05,1.05,115,2210,Correct
4F4K_incongruent,116,336,2,97,48.0,36.45,0.05,0.57,97,1572,Correct
4F4K_incongruent,116,337,2,108,17.53,42.63,0.02,0.67,108,883,Correct
4F4K_incongruent,116,338,2,97,79.69,66.4,0.09,1.04,108,1688,Incorrect
4F4K_incongruent,116,339,2,108,61.25,85.81,0.07,1.35,97,1586,Incorrect
4F4K_incongruent,116,340,2,108,30.63,40.06,0.03,0.63,108,3770,Correct
4F4K_incongruent,116,341,2,108,42.35,56.52,0.05,0.89,108,917,Correct
4F4K_incongruent,116,342,1,115,62.71,76.42,0.07,1.2,107,2400,Incorrect
4F4K_incongruent,116,343,2,97,59.99,32.28,0.07,0.51,97,1749,Correct
4F4K_incongruent,116,344,1,107,39.36,18.69,0.04,0.29,107,2847,Correct
4F4K_incongruent,116,345,2,108,49.85,58.86,0.06,0.92,108,2082,Correct
4F4K_incongruent,116,346,2,97,42.74,29.89,0.05,0.47,97,1202,Correct
4F4K_incongruent,116,347,2,108,31.29,63.3,0.04,0.99,108,1782,Correct
4F4K_incongruent,116,348,2,108,44.0,75.01,0.05,1.18,108,996,Correct
4F4K_incongruent,116,349,2,97,65.53,32.6,0.07,0.51,97,1419,Correct
4F4K_incongruent,116,350,1,107,86.07,62.29,0.1,0.98,107,1593,Correct
4F4K_incongruent,116,351,1,107,36.29,22.43,0.04,0.35,115,3544,Incorrect
4F4K_incongruent,116,352,1,115,24.59,40.79,0.03,0.64,107,671,Incorrect
4F4K_incongruent,116,353,2,97,69.18,41.92,0.08,0.66,97,1498,Correct
4F4K_incongruent,116,354,2,108,55.02,77.0,0.06,1.21,108,1853,Correct
4F4K_incongruent,116,355,2,97,56.38,33.41,0.06,0.52,97,850,Correct
4F4K_incongruent,116,356,2,97,63.4,50.18,0.07,0.79,97,802,Correct
4F4K_incongruent,116,357,1,107,39.52,27.68,0.04,0.43,115,3299,Incorrect
4F4K_incongruent,116,358,2,108,40.54,68.73,0.05,1.08,108,7725,Correct
4F4K_incongruent,116,359,2,97,47.47,36.4,0.05,0.57,97,1438,Correct
4F4K_incongruent,116,360,2,97,62.01,29.58,0.07,0.46,97,634,Correct
4F4K_incongruent,116,361,1,115,43.52,66.59,0.05,1.05,115,4903,Correct
4F4K_incongruent,116,362,1,115,53.09,63.06,0.06,0.99,115,798,Correct
4F4K_incongruent,116,363,2,108,13.26,36.15,0.01,0.57,108,929,Correct
4F4K_incongruent,116,364,2,97,47.04,39.61,0.05,0.62,97,1655,Correct
4F4K_incongruent,116,365,2,108,19.29,41.9,0.02,0.66,108,1492,Correct
4F4K_incongruent,116,366,2,97,41.35,16.65,0.05,0.26,97,1069,Correct
4F4K_incongruent,116,367,2,97,81.74,50.87,0.09,0.8,97,2100,Correct
4F4K_incongruent,116,368,1,107,53.07,43.44,0.06,0.68,107,1689,Correct
4F4K_incongruent,116,369,2,108,56.18,84.16,0.06,1.32,108,1406,Correct
4F4K_incongruent,116,370,1,107,55.99,28.72,0.06,0.45,107,1968,Correct
4F4K_incongruent,116,371,2,97,52.79,24.81,0.06,0.39,97,812,Correct
4F4K_incongruent,116,372,1,115,59.3,69.55,0.07,1.09,115,1580,Correct
4F4K_incongruent,116,373,2,108,30.52,41.31,0.03,0.65,108,765,Correct
4F4K_incongruent,116,374,1,107,54.68,37.91,0.06,0.6,107,2769,Correct
4F4K_incongruent,116,375,2,97,61.06,37.28,0.07,0.59,97,1057,Correct
4F4K_incongruent,116,376,2,108,60.99,85.42,0.07,1.34,108,1610,Correct
4F4K_incongruent,116,377,1,115,24.87,48.34,0.03,0.76,115,4938,Correct
4F4K_incongruent,116,378,2,97,36.08,12.45,0.04,0.2,97,1502,Correct
4F4K_incongruent,116,379,1,107,64.04,35.35,0.07,0.56,107,3208,Correct
4F4K_incongruent,116,380,2,108,16.38,43.24,0.02,0.68,108,3846,Correct
4F4K_incongruent,116,381,2,108,48.24,79.1,0.05,1.24,108,2813,Correct
4F4K_incongruent,116,382,1,107,58.8,40.71,0.07,0.64,107,1310,Correct
4F4K_incongruent,116,383,2,97,80.57,65.56,0.09,1.03,97,1641,Correct
4F4K_incongruent,116,384,2,97,40.29,15.71,0.05,0.25,97,933,Correct
4F4K_incongruent,116,385,2,97,32.11,11.81,0.04,0.19,97,838,Correct
4F4K_incongruent,116,386,1,115,29.16,40.34,0.03,0.63,107,2313,Incorrect
4F4K_incongruent,116,387,2,97,50.7,36.53,0.06,0.57,97,731,Correct
4F4K_incongruent,116,388,1,107,56.99,50.22,0.06,0.79,107,1930,Correct
4F4K_incongruent,116,389,2,97,67.84,35.62,0.08,0.56,97,856,Correct
4F4K_incongruent,116,390,2,108,32.91,52.53,0.04,0.83,108,1889,Correct
4F4K_incongruent,116,391,1,115,13.46,32.74,0.02,0.51,115,1763,Correct
4F4K_incongruent,116,392,2,97,31.45,15.89,0.04,0.25,97,737,Correct
4F4K_incongruent,116,393,1,107,68.58,52.17,0.08,0.82,107,1356,Correct
4F4K_incongruent,116,394,1,115,44.71,75.06,0.05,1.18,115,1083,Correct
4F4K_incongruent,116,395,2,97,47.69,29.01,0.05,0.46,97,824,Correct
4F4K_incongruent,116,396,1,107,73.41,50.19,0.08,0.79,107,1157,Correct
4F4K_incongruent,116,397,2,108,16.98,38.43,0.02,0.6,108,888,Correct
4F4K_incongruent,116,398,2,97,48.41,37.71,0.05,0.59,97,1005,Correct
