condition,subject,trial,sub_task,cat,x,y,xt,yt,resp,rt,fb
4F4K_incongruent,32,0,1,115,62.42,72.47,0.07,1.14,107,1382,Correct
4F4K_incongruent,32,1,1,107,38.96,19.98,0.04,0.31,115,756,Incorrect
4F4K_incongruent,32,2,2,97,66.36,57.76,0.07,0.91,97,848,Correct
4F4K_incongruent,32,3,1,115,24.33,35.19,0.03,0.55,107,1251,Incorrect
4F4K_incongruent,32,4,1,115,64.94,75.7,0.07,1.19,115,699,Correct
4F4K_incongruent,32,5,2,108,16.83,36.74,0.02,0.58,97,854,Incorrect
4F4K_incongruent,32,6,2,97,77.89,56.09,0.09,0.88,108,720,Incorrect
4F4K_incongruent,32,7,2,97,65.82,51.16,0.07,0.8,97,677,Correct
4F4K_incongruent,32,8,2,108,60.35,73.4,0.07,1.15,97,911,Incorrect
4F4K_incongruent,32,9,1,107,78.22,64.03,0.09,1.01,115,476,Incorrect
4F4K_incongruent,32,10,1,115,33.82,58.97,0.04,0.93,107,1202,Incorrect
4F4K_incongruent,32,11,1,107,56.4,28.26,0.06,0.44,115,746,Incorrect
4F4K_incongruent,32,12,1,107,34.21,14.96,0.04,0.24,107,763,Correct
4F4K_incongruent,32,13,1,115,52.03,82.06,0.06,1.29,107,868,Incorrect
4F4K_incongruent,32,14,1,107,49.38,20.26,0.06,0.32,115,639,Incorrect
4F4K_incongruent,32,15,2,97,89.48,66.59,0.1,1.05,108,931,Incorrect
4F4K_incongruent,32,16,2,108,44.32,70.75,0.05,1.11,97,1939,Incorrect
4F4K_incongruent,32,17,2,97,41.36,32.98,0.05,0.52,97,1396,Correct
4F4K_incongruent,32,18,1,107,54.33,29.23,0.06,0.46,107,2029,Correct
4F4K_incongruent,32,19,1,107,42.24,32.3,0.05,0.51,115,1094,Incorrect
4F4K_incongruent,32,20,2,97,37.86,16.2,0.04,0.25,108,966,Incorrect
4F4K_incongruent,32,21,1,115,28.59,44.47,0.03,0.7,107,2684,Incorrect
4F4K_incongruent,32,22,2,108,22.38,48.5,0.03,0.76,97,1044,Incorrect
4F4K_incongruent,32,23,1,115,41.73,54.64,0.05,0.86,115,2040,Correct
4F4K_incongruent,32,24,2,108,27.38,41.09,0.03,0.65,108,810,Correct
4F4K_incongruent,32,25,2,108,25.35,54.15,0.03,0.85,108,1159,Correct
4F4K_incongruent,32,26,2,108,34.68,59.91,0.04,0.94,108,854,Correct
4F4K_incongruent,32,27,2,108,61.86,80.97,0.07,1.27,108,751,Correct
4F4K_incongruent,32,28,2,97,57.35,28.81,0.06,0.45,108,1106,Incorrect
4F4K_incongruent,32,29,2,97,76.21,61.56,0.09,0.97,97,1008,Correct
4F4K_incongruent,32,30,2,108,57.36,74.63,0.06,1.17,97,775,Incorrect
4F4K_incongruent,32,31,1,115,65.04,86.66,0.07,1.36,115,1712,Correct
4F4K_incongruent,32,32,1,107,55.32,26.68,0.06,0.42,107,1491,Correct
4F4K_incongruent,32,33,1,107,37.26,24.64,0.04,0.39,107,925,Correct
4F4K_incongruent,32,34,2,108,46.5,74.6,0.05,1.17,108,1250,Correct
4F4K_incongruent,32,35,1,107,82.59,54.03,0.09,0.85,107,1123,Correct
4F4K_incongruent,32,36,1,115,12.06,39.15,0.01,0.62,107,838,Incorrect
4F4K_incongruent,32,37,1,107,51.56,32.39,0.06,0.51,115,2167,Incorrect
4F4K_incongruent,32,38,2,97,42.17,31.92,0.05,0.5,97,1133,Correct
4F4K_incongruent,32,39,2,97,68.98,54.09,0.08,0.85,108,1439,Incorrect
4F4K_incongruent,32,40,2,108,47.7,68.57,0.05,1.08,97,1242,Incorrect
4F4K_incongruent,32,41,2,97,54.8,22.92,0.06,0.36,108,845,Incorrect
4F4K_incongruent,32,42,2,108,69.14,84.46,0.08,1.33,97,719,Incorrect
4F4K_incongruent,32,43,1,107,75.93,50.89,0.08,0.8,115,1264,Incorrect
4F4K_incongruent,32,44,1,107,71.36,54.94,0.08,0.86,107,713,Correct
4F4K_incongruent,32,45,1,107,52.61,42.34,0.06,0.67,107,845,Correct
4F4K_incongruent,32,46,1,115,28.35,50.02,0.03,0.79,107,975,Incorrect
4F4K_incongruent,32,47,1,115,43.99,64.9,0.05,1.02,115,850,Correct
4F4K_incongruent,32,48,2,97,59.05,29.21,0.07,0.46,108,925,Incorrect
4F4K_incongruent,32,49,1,115,12.07,35.53,0.01,0.56,115,876,Correct
4F4K_incongruent,32,50,1,107,57.46,32.12,0.06,0.5,115,1145,Incorrect
4F4K_incongruent,32,51,2,97,70.82,56.51,0.08,0.89,108,756,Incorrect
4F4K_incongruent,32,52,2,108,39.28,56.93,0.04,0.89,97,1454,Incorrect
4F4K_incongruent,32,53,1,115,48.41,76.93,0.05,1.21,115,1237,Correct
4F4K_incongruent,32,54,2,97,56.97,39.31,0.06,0.62,108,881,Incorrect
4F4K_incongruent,32,55,1,115,20.02,43.62,0.02,0.69,115,756,Correct
4F4K_incongruent,32,56,1,107,49.95,35.02,0.06,0.55,115,704,Incorrect
4F4K_incongruent,32,57,2,97,46.46,18.44,0.05,0.29,108,1014,Incorrect
4F4K_incongruent,32,58,1,107,62.32,47.71,0.07,0.75,115,829,Incorrect
4F4K_incongruent,32,59,2,108,60.42,82.54,0.07,1.3,108,636,Correct
4F4K_incongruent,32,60,2,97,69.02,48.59,0.08,0.76,108,1244,Incorrect
4F4K_incongruent,32,61,2,108,41.88,56.51,0.05,0.89,97,846,Incorrect
4F4K_incongruent,32,62,1,107,50.0,42.18,0.06,0.66,115,693,Incorrect
4F4K_incongruent,32,63,1,107,57.48,39.37,0.06,0.62,115,977,Incorrect
4F4K_incongruent,32,64,2,108,14.37,37.93,0.02,0.6,97,715,Incorrect
4F4K_incongruent,32,65,2,108,48.03,59.39,0.05,0.93,108,598,Correct
4F4K_incongruent,32,66,1,107,45.29,35.07,0.05,0.55,115,768,Incorrect
4F4K_incongruent,32,67,2,108,58.7,68.14,0.07,1.07,97,767,Incorrect
4F4K_incongruent,32,68,2,108,36.24,45.29,0.04,0.71,108,696,Correct
4F4K_incongruent,32,69,1,115,53.62,74.49,0.06,1.17,115,827,Correct
4F4K_incongruent,32,70,1,107,63.89,33.97,0.07,0.53,115,767,Incorrect
4F4K_incongruent,32,71,1,115,51.79,73.72,0.06,1.16,107,740,Incorrect
4F4K_incongruent,32,72,1,107,38.19,21.28,0.04,0.33,115,691,Incorrect
4F4K_incongruent,32,73,1,115,30.34,54.1,0.03,0.85,107,785,Incorrect
4F4K_incongruent,32,74,1,107,70.33,40.01,0.08,0.63,115,592,Incorrect
4F4K_incongruent,32,75,2,108,27.82,52.18,0.03,0.82,97,925,Incorrect
4F4K_incongruent,32,76,2,97,59.61,36.34,0.07,0.57,108,813,Incorrect
4F4K_incongruent,32,77,1,107,57.54,32.24,0.06,0.51,115,682,Incorrect
4F4K_incongruent,32,78,2,97,83.53,68.36,0.09,1.07,108,774,Incorrect
4F4K_incongruent,32,79,2,97,55.41,31.02,0.06,0.49,97,626,Correct
4F4K_incongruent,32,80,2,108,42.72,50.12,0.05,0.79,97,852,Incorrect
4F4K_incongruent,32,81,2,97,56.41,38.76,0.06,0.61,97,1606,Correct
4F4K_incongruent,32,82,2,97,57.09,40.41,0.06,0.63,97,625,Correct
4F4K_incongruent,32,83,1,107,82.46,52.57,0.09,0.83,115,2588,Incorrect
4F4K_incongruent,32,84,2,108,39.93,49.76,0.04,0.78,97,704,Incorrect
4F4K_incongruent,32,85,2,97,57.88,49.68,0.06,0.78,108,703,Incorrect
4F4K_incongruent,32,86,2,97,45.88,36.76,0.05,0.58,97,629,Correct
4F4K_incongruent,32,87,2,108,42.11,70.25,0.05,1.1,97,729,Incorrect
4F4K_incongruent,32,88,2,97,55.89,38.52,0.06,0.61,108,612,Incorrect
4F4K_incongruent,32,89,1,115,27.16,48.03,0.03,0.75,115,720,Correct
4F4K_incongruent,32,90,1,107,51.21,41.3,0.06,0.65,107,681,Correct
4F4K_incongruent,32,91,2,108,46.21,73.98,0.05,1.16,97,548,Incorrect
4F4K_incongruent,32,92,1,115,31.47,62.03,0.04,0.97,107,758,Incorrect
4F4K_incongruent,32,93,2,108,49.27,75.48,0.06,1.19,97,524,Incorrect
4F4K_incongruent,32,94,2,108,24.42,39.22,0.03,0.62,108,670,Correct
4F4K_incongruent,32,95,1,107,43.12,34.49,0.05,0.54,107,2490,Correct
4F4K_incongruent,32,96,1,107,82.23,60.4,0.09,0.95,115,1076,Incorrect
4F4K_incongruent,32,97,2,108,16.32,45.5,0.02,0.71,97,692,Incorrect
4F4K_incongruent,32,98,2,108,46.26,59.97,0.05,0.94,108,769,Correct
4F4K_incongruent,32,99,2,97,59.58,52.62,0.07,0.83,108,1511,Incorrect
4F4K_incongruent,32,100,1,115,49.27,61.59,0.06,0.97,115,1109,Correct
4F4K_incongruent,32,101,1,107,81.52,50.26,0.09,0.79,115,629,Incorrect
4F4K_incongruent,32,102,2,97,74.27,63.26,0.08,0.99,97,934,Correct
4F4K_incongruent,32,103,1,115,12.79,31.84,0.01,0.5,115,698,Correct
4F4K_incongruent,32,104,1,115,21.65,37.75,0.02,0.59,115,704,Correct
4F4K_incongruent,32,105,1,115,32.86,51.05,0.04,0.8,115,778,Correct
4F4K_incongruent,32,106,2,108,56.27,63.99,0.06,1.01,108,1141,Correct
4F4K_incongruent,32,107,1,107,50.03,33.6,0.06,0.53,115,779,Incorrect
4F4K_incongruent,32,108,1,107,38.42,13.02,0.04,0.2,107,912,Correct
4F4K_incongruent,32,109,2,97,76.99,54.58,0.09,0.86,108,821,Incorrect
4F4K_incongruent,32,110,1,115,30.66,44.79,0.03,0.7,115,1779,Correct
4F4K_incongruent,32,111,2,108,17.28,41.16,0.02,0.65,97,659,Incorrect
4F4K_incongruent,32,112,2,108,26.02,47.8,0.03,0.75,108,439,Correct
4F4K_incongruent,32,113,1,107,68.16,50.55,0.08,0.79,115,1150,Incorrect
4F4K_incongruent,32,114,2,97,45.68,38.45,0.05,0.6,108,686,Incorrect
4F4K_incongruent,32,115,2,97,57.05,45.12,0.06,0.71,97,657,Correct
4F4K_incongruent,32,116,1,115,46.05,55.79,0.05,0.88,115,3876,Correct
4F4K_incongruent,32,117,1,107,63.02,39.56,0.07,0.62,115,1404,Incorrect
4F4K_incongruent,32,118,1,115,45.5,56.24,0.05,0.88,107,639,Incorrect
4F4K_incongruent,32,119,1,107,57.81,49.1,0.06,0.77,115,616,Incorrect
4F4K_incongruent,32,120,2,97,69.12,53.21,0.08,0.84,108,1199,Incorrect
4F4K_incongruent,32,121,1,107,77.13,47.25,0.09,0.74,115,675,Incorrect
4F4K_incongruent,32,122,2,108,65.68,79.63,0.07,1.25,97,848,Incorrect
4F4K_incongruent,32,123,1,115,39.81,46.79,0.04,0.74,115,662,Correct
4F4K_incongruent,32,124,2,97,63.1,46.91,0.07,0.74,108,729,Incorrect
4F4K_incongruent,32,125,2,97,74.46,56.03,0.08,0.88,97,817,Correct
4F4K_incongruent,32,126,2,97,46.23,31.02,0.05,0.49,108,1898,Incorrect
4F4K_incongruent,32,127,1,107,40.71,26.68,0.05,0.42,115,947,Incorrect
4F4K_incongruent,32,128,1,115,11.76,36.83,0.01,0.58,115,826,Correct
4F4K_incongruent,32,129,1,115,32.61,63.37,0.04,1.0,115,2440,Correct
4F4K_incongruent,32,130,2,97,77.66,57.3,0.09,0.9,108,872,Incorrect
4F4K_incongruent,32,131,2,97,75.08,63.11,0.08,0.99,97,559,Correct
4F4K_incongruent,32,132,1,107,69.64,40.85,0.08,0.64,115,2572,Incorrect
4F4K_incongruent,32,133,2,108,53.45,73.98,0.06,1.16,108,940,Correct
4F4K_incongruent,32,134,1,107,81.07,54.79,0.09,0.86,115,819,Incorrect
4F4K_incongruent,32,135,2,97,45.6,20.69,0.05,0.33,97,622,Correct
4F4K_incongruent,32,136,1,107,56.95,39.58,0.06,0.62,107,1153,Correct
4F4K_incongruent,32,137,2,108,21.71,49.05,0.02,0.77,97,693,Incorrect
4F4K_incongruent,32,138,1,107,64.66,43.3,0.07,0.68,107,909,Correct
4F4K_incongruent,32,139,2,108,25.67,44.0,0.03,0.69,108,903,Correct
4F4K_incongruent,32,140,2,97,49.53,34.79,0.06,0.55,108,973,Incorrect
4F4K_incongruent,32,141,2,108,53.97,69.93,0.06,1.1,97,759,Incorrect
4F4K_incongruent,32,142,2,97,57.52,40.98,0.06,0.64,108,541,Incorrect
4F4K_incongruent,32,143,2,97,64.55,48.96,0.07,0.77,97,400,Correct
4F4K_incongruent,32,144,1,107,58.43,39.73,0.07,0.62,107,1450,Correct
4F4K_incongruent,32,145,2,108,40.99,72.89,0.05,1.15,97,704,Incorrect
4F4K_incongruent,32,146,1,115,48.03,63.16,0.05,0.99,107,906,Incorrect
4F4K_incongruent,32,147,1,107,60.02,47.99,0.07,0.75,115,794,Incorrect
4F4K_incongruent,32,148,2,108,62.05,77.36,0.07,1.22,108,564,Correct
4F4K_incongruent,32,149,1,115,27.88,59.74,0.03,0.94,115,697,Correct
4F4K_incongruent,32,150,2,108,25.53,54.77,0.03,0.86,108,639,Correct
4F4K_incongruent,32,151,1,115,53.42,79.9,0.06,1.26,115,1145,Correct
4F4K_incongruent,32,152,2,108,21.48,49.42,0.02,0.78,108,634,Correct
4F4K_incongruent,32,153,1,107,36.78,24.15,0.04,0.38,115,601,Incorrect
4F4K_incongruent,32,154,2,97,48.69,30.8,0.05,0.48,108,1442,Incorrect
4F4K_incongruent,32,155,2,108,17.92,33.93,0.02,0.53,97,679,Incorrect
4F4K_incongruent,32,156,1,107,44.97,31.89,0.05,0.5,115,1721,Incorrect
4F4K_incongruent,32,157,1,115,40.78,60.29,0.05,0.95,107,1308,Incorrect
4F4K_incongruent,32,158,2,108,58.18,74.15,0.07,1.16,108,2337,Correct
4F4K_incongruent,32,159,1,107,87.7,64.19,0.1,1.01,115,1720,Incorrect
4F4K_incongruent,32,160,2,108,54.44,64.09,0.06,1.01,108,1155,Correct
4F4K_incongruent,32,161,1,107,80.42,67.79,0.09,1.06,115,1585,Incorrect
4F4K_incongruent,32,162,2,108,47.96,61.56,0.05,0.97,108,640,Correct
4F4K_incongruent,32,163,2,108,44.87,73.02,0.05,1.15,108,536,Correct
4F4K_incongruent,32,164,2,108,42.24,69.0,0.05,1.08,108,525,Correct
4F4K_incongruent,32,165,1,115,36.78,69.31,0.04,1.09,115,1036,Correct
4F4K_incongruent,32,166,1,107,56.07,48.11,0.06,0.76,115,958,Incorrect
4F4K_incongruent,32,167,1,107,79.46,52.44,0.09,0.82,107,689,Correct
4F4K_incongruent,32,168,2,108,45.53,64.68,0.05,1.02,108,417,Correct
4F4K_incongruent,32,169,1,115,23.94,48.42,0.03,0.76,115,1087,Correct
4F4K_incongruent,32,170,2,97,85.87,60.25,0.1,0.95,108,575,Incorrect
4F4K_incongruent,32,171,1,107,47.52,30.34,0.05,0.48,115,1224,Incorrect
4F4K_incongruent,32,172,2,97,79.55,66.86,0.09,1.05,108,1198,Incorrect
4F4K_incongruent,32,173,2,97,55.84,27.41,0.06,0.43,97,451,Correct
4F4K_incongruent,32,174,1,115,36.18,47.04,0.04,0.74,115,1809,Correct
4F4K_incongruent,32,175,2,97,72.22,52.54,0.08,0.83,97,1130,Correct
4F4K_incongruent,32,176,2,97,62.25,49.9,0.07,0.78,97,613,Correct
4F4K_incongruent,32,177,1,115,18.46,38.46,0.02,0.6,115,1199,Correct
4F4K_incongruent,32,178,2,97,78.6,65.29,0.09,1.03,97,1411,Correct
4F4K_incongruent,32,179,2,108,33.62,52.27,0.04,0.82,108,862,Correct
4F4K_incongruent,32,180,1,115,27.91,55.6,0.03,0.87,115,2075,Correct
4F4K_incongruent,32,181,2,97,78.1,62.47,0.09,0.98,97,619,Correct
4F4K_incongruent,32,182,1,115,66.22,88.9,0.07,1.4,115,1003,Correct
4F4K_incongruent,32,183,1,115,27.24,45.22,0.03,0.71,115,1194,Correct
4F4K_incongruent,32,184,1,107,85.57,57.52,0.1,0.9,107,544,Correct
4F4K_incongruent,32,185,2,108,49.54,57.84,0.06,0.91,108,522,Correct
4F4K_incongruent,32,186,1,115,39.9,57.27,0.04,0.9,115,837,Correct
4F4K_incongruent,32,187,1,107,54.47,37.99,0.06,0.6,115,1017,Incorrect
4F4K_incongruent,32,188,1,115,26.35,47.18,0.03,0.74,115,702,Correct
4F4K_incongruent,32,189,1,107,63.45,48.66,0.07,0.76,107,728,Correct
4F4K_incongruent,32,190,1,107,70.44,45.49,0.08,0.71,107,706,Correct
4F4K_incongruent,32,191,2,108,51.23,59.85,0.06,0.94,97,1972,Incorrect
4F4K_incongruent,32,192,1,115,62.47,75.21,0.07,1.18,107,2354,Incorrect
4F4K_incongruent,32,193,1,107,70.22,43.5,0.08,0.68,115,602,Incorrect
4F4K_incongruent,32,194,2,97,53.7,42.57,0.06,0.67,97,650,Correct
4F4K_incongruent,32,195,1,107,72.03,59.88,0.08,0.94,115,723,Incorrect
4F4K_incongruent,32,196,1,115,67.91,86.87,0.08,1.36,115,1238,Correct
4F4K_incongruent,32,197,1,115,40.02,71.57,0.04,1.12,107,1300,Incorrect
4F4K_incongruent,32,198,2,97,78.91,55.77,0.09,0.88,97,938,Correct
4F4K_incongruent,32,199,2,108,59.6,86.32,0.07,1.36,97,663,Incorrect
4F4K_incongruent,32,200,1,115,30.39,53.12,0.03,0.83,115,1101,Correct
4F4K_incongruent,32,201,1,107,69.36,42.95,0.08,0.67,107,748,Correct
4F4K_incongruent,32,202,2,97,59.95,29.23,0.07,0.46,97,1944,Correct
4F4K_incongruent,32,203,1,115,57.09,69.35,0.06,1.09,107,722,Incorrect
4F4K_incongruent,32,204,1,107,44.34,31.21,0.05,0.49,115,586,Incorrect
4F4K_incongruent,32,205,1,115,36.43,62.07,0.04,0.98,115,1071,Correct
4F4K_incongruent,32,206,2,97,35.12,15.83,0.04,0.25,97,5992,Correct
4F4K_incongruent,32,207,2,108,47.49,71.77,0.05,1.13,108,692,Correct
4F4K_incongruent,32,208,2,108,37.9,52.08,0.04,0.82,108,870,Correct
4F4K_incongruent,32,209,1,115,49.12,67.14,0.05,1.05,115,965,Correct
4F4K_incongruent,32,210,2,97,67.92,55.07,0.08,0.87,108,740,Incorrect
4F4K_incongruent,32,211,2,108,49.94,57.82,0.06,0.91,97,1135,Incorrect
4F4K_incongruent,32,212,2,97,58.03,29.06,0.06,0.46,108,568,Incorrect
4F4K_incongruent,32,213,1,107,87.92,64.3,0.1,1.01,115,1732,Incorrect
4F4K_incongruent,32,214,1,115,28.81,59.22,0.03,0.93,115,840,Correct
4F4K_incongruent,32,215,2,108,11.83,37.91,0.01,0.6,97,1170,Incorrect
4F4K_incongruent,32,216,1,115,27.3,59.31,0.03,0.93,107,793,Incorrect
4F4K_incongruent,32,217,2,97,70.08,58.7,0.08,0.92,97,715,Correct
4F4K_incongruent,32,218,1,115,33.17,50.91,0.04,0.8,115,810,Correct
4F4K_incongruent,32,219,2,108,41.23,70.53,0.05,1.11,108,760,Correct
4F4K_incongruent,32,220,1,107,41.01,29.82,0.05,0.47,115,700,Incorrect
4F4K_incongruent,32,221,2,108,49.96,79.53,0.06,1.25,108,606,Correct
4F4K_incongruent,32,222,1,107,62.86,42.22,0.07,0.66,115,628,Incorrect
4F4K_incongruent,32,223,1,115,69.11,85.39,0.08,1.34,107,713,Incorrect
4F4K_incongruent,32,224,2,108,59.95,76.49,0.07,1.2,97,829,Incorrect
4F4K_incongruent,32,225,1,115,24.34,39.81,0.03,0.63,115,1103,Correct
4F4K_incongruent,32,226,1,107,55.33,47.61,0.06,0.75,107,891,Correct
4F4K_incongruent,32,227,1,107,78.29,55.32,0.09,0.87,107,688,Correct
4F4K_incongruent,32,228,2,97,36.2,15.92,0.04,0.25,97,719,Correct
4F4K_incongruent,32,229,2,97,51.58,40.14,0.06,0.63,97,603,Correct
4F4K_incongruent,32,230,1,107,68.09,37.72,0.08,0.59,115,773,Incorrect
4F4K_incongruent,32,231,1,107,59.81,40.72,0.07,0.64,107,724,Correct
4F4K_incongruent,32,232,1,115,35.05,61.68,0.04,0.97,115,639,Correct
4F4K_incongruent,32,233,2,108,29.36,41.83,0.03,0.66,97,642,Incorrect
4F4K_incongruent,32,234,1,107,74.16,45.11,0.08,0.71,107,672,Correct
4F4K_incongruent,32,235,1,115,55.91,76.21,0.06,1.2,107,709,Incorrect
4F4K_incongruent,32,236,2,108,48.46,69.39,0.05,1.09,97,812,Incorrect
4F4K_incongruent,32,237,1,115,47.29,59.12,0.05,0.93,107,642,Incorrect
4F4K_incongruent,32,238,1,107,48.77,30.84,0.05,0.48,115,454,Incorrect
4F4K_incongruent,32,239,2,97,82.21,65.64,0.09,1.03,108,542,Incorrect
4F4K_incongruent,32,240,2,97,58.69,50.88,0.07,0.8,97,611,Correct
4F4K_incongruent,32,241,1,107,47.03,28.42,0.05,0.45,115,604,Incorrect
4F4K_incongruent,32,242,2,97,78.02,46.0,0.09,0.72,108,948,Incorrect
4F4K_incongruent,32,243,2,97,56.61,28.4,0.06,0.45,97,521,Correct
4F4K_incongruent,32,244,1,115,47.75,69.53,0.05,1.09,115,504,Correct
4F4K_incongruent,32,245,2,97,31.78,12.36,0.04,0.19,108,792,Incorrect
4F4K_incongruent,32,246,1,107,59.77,28.36,0.07,0.45,115,721,Incorrect
4F4K_incongruent,32,247,1,115,57.52,69.8,0.06,1.1,107,830,Incorrect
4F4K_incongruent,32,248,1,107,64.76,38.61,0.07,0.61,115,447,Incorrect
4F4K_incongruent,32,249,2,97,79.5,65.73,0.09,1.03,108,671,Incorrect
4F4K_incongruent,32,250,2,97,32.97,14.26,0.04,0.22,97,1668,Correct
4F4K_incongruent,32,251,1,115,31.26,43.61,0.03,0.69,115,576,Correct
4F4K_incongruent,32,252,2,108,38.93,57.63,0.04,0.91,97,507,Incorrect
4F4K_incongruent,32,253,1,115,55.5,76.48,0.06,1.2,115,1069,Correct
4F4K_incongruent,32,254,2,108,69.33,86.37,0.08,1.36,108,436,Correct
4F4K_incongruent,32,255,1,115,56.72,65.91,0.06,1.04,115,622,Correct
4F4K_incongruent,32,256,2,108,36.34,61.83,0.04,0.97,97,558,Incorrect
4F4K_incongruent,32,257,1,107,52.53,45.42,0.06,0.71,115,1061,Incorrect
4F4K_incongruent,32,258,2,97,40.91,16.25,0.05,0.26,97,1550,Correct
4F4K_incongruent,32,259,2,108,44.58,52.31,0.05,0.82,97,2217,Incorrect
4F4K_incongruent,32,260,1,107,81.38,61.23,0.09,0.96,115,996,Incorrect
4F4K_incongruent,32,261,2,97,38.1,14.33,0.04,0.23,108,364,Incorrect
4F4K_incongruent,32,262,1,115,52.15,81.28,0.06,1.28,115,478,Correct
4F4K_incongruent,32,263,1,115,64.97,83.84,0.07,1.32,115,1573,Correct
4F4K_incongruent,32,264,1,115,42.75,70.5,0.05,1.11,115,914,Correct
4F4K_incongruent,32,265,1,107,40.45,21.32,0.05,0.33,115,554,Incorrect
4F4K_incongruent,32,266,2,108,53.66,60.85,0.06,0.96,108,847,Correct
4F4K_incongruent,32,267,1,115,47.97,71.88,0.05,1.13,115,725,Correct
4F4K_incongruent,32,268,2,108,53.63,71.42,0.06,1.12,108,1115,Correct
4F4K_incongruent,32,269,2,108,58.11,75.05,0.07,1.18,108,1094,Correct
4F4K_incongruent,32,270,2,97,53.19,36.2,0.06,0.57,97,1294,Correct
4F4K_incongruent,32,271,1,115,32.38,64.91,0.04,1.02,115,667,Correct
4F4K_incongruent,32,272,1,115,24.83,54.77,0.03,0.86,115,664,Correct
4F4K_incongruent,32,273,1,115,42.57,61.8,0.05,0.97,115,514,Correct
4F4K_incongruent,32,274,1,115,34.98,54.15,0.04,0.85,115,578,Correct
4F4K_incongruent,32,275,2,108,54.34,75.64,0.06,1.19,97,529,Incorrect
4F4K_incongruent,32,276,2,97,64.36,56.38,0.07,0.89,97,662,Correct
4F4K_incongruent,32,277,1,115,55.67,72.01,0.06,1.13,115,814,Correct
4F4K_incongruent,32,278,2,108,50.84,75.54,0.06,1.19,97,581,Incorrect
4F4K_incongruent,32,279,1,107,66.38,53.06,0.07,0.83,107,692,Correct
4F4K_incongruent,32,280,1,115,47.83,76.96,0.05,1.21,115,521,Correct
4F4K_incongruent,32,281,2,97,33.04,10.88,0.04,0.17,97,583,Correct
4F4K_incongruent,32,282,2,108,31.5,55.46,0.04,0.87,108,697,Correct
4F4K_incongruent,32,283,1,107,71.12,55.78,0.08,0.88,107,1077,Correct
4F4K_incongruent,32,284,1,107,43.41,23.26,0.05,0.37,107,2252,Correct
4F4K_incongruent,32,285,2,108,37.6,47.31,0.04,0.74,108,911,Correct
4F4K_incongruent,32,286,1,107,84.53,62.65,0.09,0.98,107,1276,Correct
4F4K_incongruent,32,287,2,97,70.93,41.69,0.08,0.65,108,984,Incorrect
4F4K_incongruent,32,288,2,97,77.32,48.71,0.09,0.77,97,809,Correct
4F4K_incongruent,32,289,2,97,39.58,21.62,0.04,0.34,108,1111,Incorrect
4F4K_incongruent,32,290,1,107,49.05,26.92,0.05,0.42,115,861,Incorrect
4F4K_incongruent,32,291,1,107,45.88,30.67,0.05,0.48,107,676,Correct
4F4K_incongruent,32,292,1,115,62.64,75.43,0.07,1.18,115,1074,Correct
4F4K_incongruent,32,293,2,108,36.41,62.41,0.04,0.98,108,748,Correct
4F4K_incongruent,32,294,2,108,30.31,48.17,0.03,0.76,108,1235,Correct
4F4K_incongruent,32,295,2,108,14.79,34.53,0.02,0.54,97,816,Incorrect
4F4K_incongruent,32,296,2,97,65.8,43.88,0.07,0.69,108,390,Incorrect
4F4K_incongruent,32,297,2,97,63.35,30.31,0.07,0.48,97,1212,Correct
4F4K_incongruent,32,298,2,97,62.29,45.6,0.07,0.72,97,799,Correct
4F4K_incongruent,32,299,1,107,48.43,34.63,0.05,0.54,107,1343,Correct
4F4K_incongruent,32,300,2,97,58.52,37.36,0.07,0.59,97,416,Correct
4F4K_incongruent,32,301,2,108,64.19,84.78,0.07,1.33,108,785,Correct
4F4K_incongruent,32,302,1,115,22.31,36.39,0.02,0.57,115,834,Correct
4F4K_incongruent,32,303,2,97,72.13,60.27,0.08,0.95,97,1141,Correct
4F4K_incongruent,32,304,1,115,30.26,42.69,0.03,0.67,115,832,Correct
4F4K_incongruent,32,305,1,115,27.14,53.08,0.03,0.83,115,659,Correct
4F4K_incongruent,32,306,2,108,26.14,53.83,0.03,0.85,97,653,Incorrect
4F4K_incongruent,32,307,1,115,34.29,58.14,0.04,0.91,115,509,Correct
4F4K_incongruent,32,308,2,108,50.19,65.12,0.06,1.02,108,515,Correct
4F4K_incongruent,32,309,2,108,33.01,63.44,0.04,1.0,108,510,Correct
4F4K_incongruent,32,310,2,108,25.8,57.09,0.03,0.9,97,1296,Incorrect
4F4K_incongruent,32,311,2,108,59.79,77.85,0.07,1.22,108,500,Correct
4F4K_incongruent,32,312,2,108,51.1,80.47,0.06,1.26,108,663,Correct
4F4K_incongruent,32,313,2,108,66.25,85.7,0.07,1.35,108,410,Correct
4F4K_incongruent,32,314,2,97,40.62,20.82,0.05,0.33,108,456,Incorrect
4F4K_incongruent,32,315,2,108,20.68,33.75,0.02,0.53,97,396,Incorrect
4F4K_incongruent,32,316,2,108,41.73,54.4,0.05,0.85,108,411,Correct
4F4K_incongruent,32,317,2,108,50.51,74.97,0.06,1.18,97,855,Incorrect
4F4K_incongruent,32,318,1,115,35.98,49.44,0.04,0.78,107,645,Incorrect
4F4K_incongruent,32,319,1,107,75.08,57.88,0.08,0.91,115,501,Incorrect
4F4K_incongruent,32,320,2,97,58.5,42.08,0.07,0.66,108,1547,Incorrect
4F4K_incongruent,32,321,1,115,45.45,68.43,0.05,1.07,115,537,Correct
4F4K_incongruent,32,322,1,107,81.29,55.59,0.09,0.87,115,3996,Incorrect
4F4K_incongruent,32,323,2,108,25.58,44.57,0.03,0.7,97,711,Incorrect
4F4K_incongruent,32,324,2,108,59.0,76.24,0.07,1.2,108,594,Correct
4F4K_incongruent,32,325,2,97,62.98,54.91,0.07,0.86,108,762,Incorrect
4F4K_incongruent,32,326,1,107,53.46,45.05,0.06,0.71,115,657,Incorrect
4F4K_incongruent,32,327,1,107,81.03,58.5,0.09,0.92,107,1023,Correct
4F4K_incongruent,32,328,1,115,40.61,61.85,0.05,0.97,107,1195,Incorrect
4F4K_incongruent,32,329,2,97,64.5,46.71,0.07,0.73,97,675,Correct
4F4K_incongruent,32,330,2,97,78.66,65.95,0.09,1.04,97,1283,Correct
4F4K_incongruent,32,331,2,97,49.33,38.33,0.06,0.6,97,644,Correct
4F4K_incongruent,32,332,1,107,73.29,49.82,0.08,0.78,115,969,Incorrect
4F4K_incongruent,32,333,1,107,51.76,28.61,0.06,0.45,107,586,Correct
4F4K_incongruent,32,334,1,115,41.63,48.61,0.05,0.76,115,735,Correct
4F4K_incongruent,32,335,1,107,70.18,43.8,0.08,0.69,115,1202,Incorrect
4F4K_incongruent,32,336,2,97,54.97,47.27,0.06,0.74,108,1536,Incorrect
4F4K_incongruent,32,337,2,97,33.43,12.87,0.04,0.2,97,541,Correct
4F4K_incongruent,32,338,1,107,54.41,41.44,0.06,0.65,115,2016,Incorrect
4F4K_incongruent,32,339,2,108,54.7,79.2,0.06,1.24,108,645,Correct
4F4K_incongruent,32,340,2,97,54.05,30.26,0.06,0.48,108,2012,Incorrect
4F4K_incongruent,32,341,1,115,69.52,84.92,0.08,1.33,115,692,Correct
4F4K_incongruent,32,342,2,108,41.76,58.49,0.05,0.92,97,572,Incorrect
4F4K_incongruent,32,343,2,97,33.66,15.63,0.04,0.25,108,344,Incorrect
4F4K_incongruent,32,344,2,97,77.11,46.11,0.09,0.72,97,764,Correct
4F4K_incongruent,32,345,1,107,74.03,46.37,0.08,0.73,115,1574,Incorrect
4F4K_incongruent,32,346,1,115,29.87,39.43,0.03,0.62,115,542,Correct
4F4K_incongruent,32,347,1,115,23.38,42.19,0.03,0.66,115,681,Correct
4F4K_incongruent,32,348,2,97,85.43,62.79,0.1,0.99,108,2184,Incorrect
4F4K_incongruent,32,349,1,115,54.14,62.14,0.06,0.98,115,2282,Correct
4F4K_incongruent,32,350,1,107,56.51,36.68,0.06,0.58,115,641,Incorrect
4F4K_incongruent,32,351,1,107,41.64,19.16,0.05,0.3,107,860,Correct
4F4K_incongruent,32,352,1,107,42.3,20.22,0.05,0.32,107,795,Correct
4F4K_incongruent,32,353,2,108,53.45,76.93,0.06,1.21,108,1602,Correct
4F4K_incongruent,32,354,1,107,49.39,38.62,0.06,0.61,115,671,Incorrect
4F4K_incongruent,32,355,1,107,85.58,67.42,0.1,1.06,107,787,Correct
4F4K_incongruent,32,356,1,107,50.74,26.23,0.06,0.41,107,1612,Correct
4F4K_incongruent,32,357,2,97,30.89,13.79,0.03,0.22,97,620,Correct
4F4K_incongruent,32,358,2,108,24.14,47.09,0.03,0.74,97,752,Incorrect
4F4K_incongruent,32,359,1,115,24.61,43.93,0.03,0.69,115,655,Correct
4F4K_incongruent,32,360,2,108,55.23,84.49,0.06,1.33,108,3765,Correct
4F4K_incongruent,32,361,2,108,58.65,68.73,0.07,1.08,108,634,Correct
4F4K_incongruent,32,362,2,97,39.48,28.66,0.04,0.45,97,812,Correct
4F4K_incongruent,32,363,1,107,87.32,69.63,0.1,1.09,107,2003,Correct
4F4K_incongruent,32,364,1,115,38.29,70.6,0.04,1.11,115,716,Correct
4F4K_incongruent,32,365,1,115,54.3,67.63,0.06,1.06,115,2315,Correct
4F4K_incongruent,32,366,2,108,28.36,60.88,0.03,0.96,97,2332,Incorrect
4F4K_incongruent,32,367,2,108,18.97,43.8,0.02,0.69,108,493,Correct
4F4K_incongruent,32,368,1,107,81.63,54.92,0.09,0.86,107,676,Correct
4F4K_incongruent,32,369,1,115,62.27,74.47,0.07,1.17,107,644,Incorrect
4F4K_incongruent,32,370,1,107,86.24,68.55,0.1,1.08,115,645,Incorrect
4F4K_incongruent,32,371,2,108,49.7,62.23,0.06,0.98,97,1734,Incorrect
4F4K_incongruent,32,372,1,115,29.77,43.24,0.03,0.68,115,1116,Correct
4F4K_incongruent,32,373,2,97,71.07,54.09,0.08,0.85,108,551,Incorrect
4F4K_incongruent,32,374,1,107,43.28,24.7,0.05,0.39,115,821,Incorrect
4F4K_incongruent,32,375,1,107,81.0,61.17,0.09,0.96,107,523,Correct
4F4K_incongruent,32,376,1,115,27.07,42.98,0.03,0.68,115,619,Correct
4F4K_incongruent,32,377,1,107,54.3,32.49,0.06,0.51,107,1499,Correct
4F4K_incongruent,32,378,2,108,41.34,57.03,0.05,0.9,97,1585,Incorrect
4F4K_incongruent,32,379,1,107,42.61,19.72,0.05,0.31,107,1148,Correct
4F4K_incongruent,32,380,2,108,44.84,60.66,0.05,0.95,97,1446,Incorrect
4F4K_incongruent,32,381,1,115,23.87,37.67,0.03,0.59,115,823,Correct
4F4K_incongruent,32,382,1,115,35.2,50.6,0.04,0.79,107,767,Incorrect
4F4K_incongruent,32,383,1,115,50.86,68.88,0.06,1.08,107,2147,Incorrect
4F4K_incongruent,32,384,1,107,69.72,40.08,0.08,0.63,115,644,Incorrect
4F4K_incongruent,32,385,1,115,13.75,39.07,0.02,0.61,115,668,Correct
4F4K_incongruent,32,386,1,115,54.67,75.34,0.06,1.18,107,802,Incorrect
4F4K_incongruent,32,387,1,107,76.3,47.08,0.09,0.74,115,1018,Incorrect
4F4K_incongruent,32,388,1,107,48.9,39.88,0.05,0.63,107,435,Correct
4F4K_incongruent,32,389,2,108,57.4,71.45,0.06,1.12,97,3310,Incorrect
4F4K_incongruent,32,390,2,108,49.65,63.64,0.06,1.0,108,574,Correct
4F4K_incongruent,32,391,1,107,55.89,40.82,0.06,0.64,107,1269,Correct
4F4K_incongruent,32,392,2,108,31.05,43.66,0.03,0.69,108,1507,Correct
4F4K_incongruent,32,393,2,97,69.81,55.3,0.08,0.87,108,1084,Incorrect
4F4K_incongruent,32,394,1,115,44.96,67.63,0.05,1.06,115,1793,Correct
4F4K_incongruent,32,395,2,108,18.25,41.37,0.02,0.65,97,1590,Incorrect
4F4K_incongruent,32,396,1,115,33.18,60.1,0.04,0.94,115,768,Correct
4F4K_incongruent,32,397,1,107,73.61,57.92,0.08,0.91,107,702,Correct
4F4K_incongruent,32,398,2,97,70.16,58.55,0.08,0.92,108,1282,Incorrect
