condition,subject,trial,sub_task,cat,x,y,xt,yt,resp,rt,fb
4F4K_congruent,83,0,2,97,26.95,57.09,0.03,0.9,97,16081,Correct
4F4K_congruent,83,1,2,108,81.55,67.31,0.09,1.06,97,3831,Incorrect
4F4K_congruent,83,2,2,97,13.89,36.88,0.02,0.58,108,2608,Incorrect
4F4K_congruent,83,3,2,108,53.85,44.55,0.06,0.7,97,4340,Incorrect
4F4K_congruent,83,4,1,107,71.39,58.96,0.08,0.93,115,13816,Incorrect
4F4K_congruent,83,5,1,107,51.18,35.73,0.06,0.56,107,5726,Correct
4F4K_congruent,83,6,1,107,82.2,59.04,0.09,0.93,107,1551,Correct
4F4K_congruent,83,7,1,107,38.25,25.38,0.04,0.4,107,1149,Correct
4F4K_congruent,83,8,2,108,31.2,16.28,0.03,0.26,108,1031,Correct
4F4K_congruent,83,9,1,115,61.94,72.84,0.07,1.14,107,809,Incorrect
4F4K_congruent,83,10,2,108,77.12,47.2,0.09,0.74,108,1007,Correct
4F4K_congruent,83,11,2,108,76.85,51.54,0.09,0.81,108,1072,Correct
4F4K_congruent,83,12,2,108,45.55,25.56,0.05,0.4,97,4613,Incorrect
4F4K_congruent,83,13,1,107,69.2,60.6,0.08,0.95,115,1386,Incorrect
4F4K_congruent,83,14,1,115,40.3,52.56,0.05,0.83,115,3750,Correct
4F4K_congruent,83,15,2,108,57.88,34.51,0.06,0.54,108,2444,Correct
4F4K_congruent,83,16,2,108,69.48,46.01,0.08,0.72,108,754,Correct
4F4K_congruent,83,17,2,108,68.01,45.58,0.08,0.72,108,667,Correct
4F4K_congruent,83,18,2,108,80.4,64.24,0.09,1.01,108,1060,Correct
4F4K_congruent,83,19,1,115,46.8,56.55,0.05,0.89,115,1203,Correct
4F4K_congruent,83,20,2,97,18.8,40.12,0.02,0.63,108,957,Incorrect
4F4K_congruent,83,21,2,97,52.68,69.38,0.06,1.09,108,1510,Incorrect
4F4K_congruent,83,22,2,108,77.59,46.76,0.09,0.73,108,860,Correct
4F4K_congruent,83,23,1,115,18.5,38.75,0.02,0.61,115,1243,Correct
4F4K_congruent,83,24,1,107,61.09,41.9,0.07,0.66,107,1007,Correct
4F4K_congruent,83,25,2,108,50.51,43.11,0.06,0.68,108,1398,Correct
4F4K_congruent,83,26,2,108,72.24,45.89,0.08,0.72,108,663,Correct
4F4K_congruent,83,27,1,115,37.83,62.1,0.04,0.98,107,1700,Incorrect
4F4K_congruent,83,28,2,108,50.92,30.95,0.06,0.49,108,725,Correct
4F4K_congruent,83,29,2,108,42.17,23.79,0.05,0.37,97,1538,Incorrect
4F4K_congruent,83,30,1,107,37.74,22.22,0.04,0.35,115,2306,Incorrect
4F4K_congruent,83,31,2,108,62.09,54.52,0.07,0.86,108,894,Correct
4F4K_congruent,83,32,1,115,50.17,75.34,0.06,1.18,107,1150,Incorrect
4F4K_congruent,83,33,1,107,77.65,66.17,0.09,1.04,115,1155,Incorrect
4F4K_congruent,83,34,1,107,82.49,54.34,0.09,0.85,115,1245,Incorrect
4F4K_congruent,83,35,1,107,58.4,38.12,0.07,0.6,107,5518,Correct
4F4K_congruent,83,36,1,115,58.88,75.75,0.07,1.19,107,1200,Incorrect
4F4K_congruent,83,37,2,97,35.19,57.34,0.04,0.9,97,1525,Correct
4F4K_congruent,83,38,1,115,46.29,59.98,0.05,0.94,107,3499,Incorrect
4F4K_congruent,83,39,1,107,38.69,23.56,0.04,0.37,115,1479,Incorrect
4F4K_congruent,83,40,1,107,35.46,11.42,0.04,0.18,107,1399,Correct
4F4K_congruent,83,41,2,108,76.24,59.26,0.09,0.93,108,664,Correct
4F4K_congruent,83,42,1,107,38.74,13.87,0.04,0.22,115,2016,Incorrect
4F4K_congruent,83,43,1,115,29.37,44.35,0.03,0.7,107,2759,Incorrect
4F4K_congruent,83,44,2,108,45.57,33.75,0.05,0.53,108,680,Correct
4F4K_congruent,83,45,2,97,47.71,56.07,0.05,0.88,108,1869,Incorrect
4F4K_congruent,83,46,2,97,18.06,46.58,0.02,0.73,97,1120,Correct
4F4K_congruent,83,47,2,108,64.96,54.73,0.07,0.86,108,1104,Correct
4F4K_congruent,83,48,1,107,54.18,40.44,0.06,0.64,115,1680,Incorrect
4F4K_congruent,83,49,2,108,43.99,29.98,0.05,0.47,97,1626,Incorrect
4F4K_congruent,83,50,2,108,52.82,26.59,0.06,0.42,108,2572,Correct
4F4K_congruent,83,51,2,97,48.71,66.38,0.05,1.04,108,868,Incorrect
4F4K_congruent,83,52,2,108,79.02,57.96,0.09,0.91,108,905,Correct
4F4K_congruent,83,53,1,115,12.25,30.88,0.01,0.48,107,2375,Incorrect
4F4K_congruent,83,54,2,97,47.26,70.26,0.05,1.1,108,1403,Incorrect
4F4K_congruent,83,55,2,97,30.26,55.49,0.03,0.87,97,2368,Correct
4F4K_congruent,83,56,2,108,55.93,43.49,0.06,0.68,108,1036,Correct
4F4K_congruent,83,57,1,115,50.4,74.86,0.06,1.18,107,851,Incorrect
4F4K_congruent,83,58,1,107,80.22,54.27,0.09,0.85,115,4027,Incorrect
4F4K_congruent,83,59,1,107,47.68,25.49,0.05,0.4,115,1460,Incorrect
4F4K_congruent,83,60,2,97,15.54,30.56,0.02,0.48,97,916,Correct
4F4K_congruent,83,61,1,115,41.24,73.35,0.05,1.15,107,2216,Incorrect
4F4K_congruent,83,62,2,108,74.43,64.15,0.08,1.01,108,628,Correct
4F4K_congruent,83,63,2,97,23.84,52.1,0.03,0.82,97,872,Correct
4F4K_congruent,83,64,1,115,32.36,54.76,0.04,0.86,115,3710,Correct
4F4K_congruent,83,65,1,115,14.76,34.54,0.02,0.54,115,2074,Correct
4F4K_congruent,83,66,2,108,38.99,20.05,0.04,0.31,108,2504,Correct
4F4K_congruent,83,67,1,115,22.81,41.17,0.03,0.65,115,1395,Correct
4F4K_congruent,83,68,1,107,40.54,24.14,0.05,0.38,107,1475,Correct
4F4K_congruent,83,69,1,107,37.04,12.53,0.04,0.2,107,1492,Correct
4F4K_congruent,83,70,1,107,62.55,47.47,0.07,0.75,115,705,Incorrect
4F4K_congruent,83,71,1,107,36.03,20.78,0.04,0.33,107,3382,Correct
4F4K_congruent,83,72,2,97,36.25,45.08,0.04,0.71,108,808,Incorrect
4F4K_congruent,83,73,1,115,17.4,32.95,0.02,0.52,115,1867,Correct
4F4K_congruent,83,74,2,108,65.75,36.73,0.07,0.58,108,665,Correct
4F4K_congruent,83,75,2,108,56.48,35.09,0.06,0.55,108,596,Correct
4F4K_congruent,83,76,1,107,54.88,25.53,0.06,0.4,107,2902,Correct
4F4K_congruent,83,77,2,108,67.26,44.78,0.08,0.7,108,915,Correct
4F4K_congruent,83,78,2,97,61.77,79.16,0.07,1.24,108,2011,Incorrect
4F4K_congruent,83,79,2,108,56.52,25.44,0.06,0.4,108,961,Correct
4F4K_congruent,83,80,1,107,51.78,41.61,0.06,0.65,107,1885,Correct
4F4K_congruent,83,81,2,97,34.28,60.93,0.04,0.96,97,912,Correct
4F4K_congruent,83,82,2,97,26.0,42.73,0.03,0.67,97,2718,Correct
4F4K_congruent,83,83,1,115,43.04,66.07,0.05,1.04,107,3385,Incorrect
4F4K_congruent,83,84,1,107,67.87,51.57,0.08,0.81,115,1478,Incorrect
4F4K_congruent,83,85,1,115,32.85,59.46,0.04,0.93,107,1859,Incorrect
4F4K_congruent,83,86,2,97,56.1,73.53,0.06,1.16,108,1127,Incorrect
4F4K_congruent,83,87,1,107,37.52,13.52,0.04,0.21,115,4645,Incorrect
4F4K_congruent,83,88,2,97,12.25,33.49,0.01,0.53,97,1372,Correct
4F4K_congruent,83,89,1,115,14.6,43.75,0.02,0.69,115,2029,Correct
4F4K_congruent,83,90,1,115,32.01,47.36,0.04,0.74,107,2033,Incorrect
4F4K_congruent,83,91,1,107,52.64,31.21,0.06,0.49,107,2096,Correct
4F4K_congruent,83,92,1,115,52.16,80.44,0.06,1.26,115,1849,Correct
4F4K_congruent,83,93,2,108,78.45,60.38,0.09,0.95,108,1168,Correct
4F4K_congruent,83,94,2,108,60.05,49.28,0.07,0.77,108,1875,Correct
4F4K_congruent,83,95,2,108,41.2,25.04,0.05,0.39,97,977,Incorrect
4F4K_congruent,83,96,1,115,27.5,47.87,0.03,0.75,107,7291,Incorrect
4F4K_congruent,83,97,1,115,37.98,55.47,0.04,0.87,115,988,Correct
4F4K_congruent,83,98,2,108,70.95,42.84,0.08,0.67,108,973,Correct
4F4K_congruent,83,99,1,115,52.64,63.83,0.06,1.0,107,1613,Incorrect
4F4K_congruent,83,100,2,97,49.22,63.72,0.06,1.0,108,1084,Incorrect
4F4K_congruent,83,101,1,115,59.53,71.26,0.07,1.12,115,1351,Correct
4F4K_congruent,83,102,2,97,28.61,47.43,0.03,0.75,97,2058,Correct
4F4K_congruent,83,103,1,115,26.27,41.58,0.03,0.65,115,6120,Correct
4F4K_congruent,83,104,2,108,50.47,20.11,0.06,0.32,108,3269,Correct
4F4K_congruent,83,105,2,108,79.9,51.28,0.09,0.81,108,822,Correct
4F4K_congruent,83,106,1,115,38.77,54.67,0.04,0.86,115,1626,Correct
4F4K_congruent,83,107,2,97,52.09,79.2,0.06,1.24,97,3701,Correct
4F4K_congruent,83,108,1,115,53.09,69.09,0.06,1.09,115,1179,Correct
4F4K_congruent,83,109,2,97,17.47,32.9,0.02,0.52,108,1580,Incorrect
4F4K_congruent,83,110,2,97,37.6,66.98,0.04,1.05,97,6897,Correct
4F4K_congruent,83,111,1,115,22.56,49.74,0.03,0.78,107,1683,Incorrect
4F4K_congruent,83,112,1,115,45.35,61.59,0.05,0.97,115,2463,Correct
4F4K_congruent,83,113,1,107,77.2,53.06,0.09,0.83,107,1389,Correct
4F4K_congruent,83,114,2,97,51.13,82.15,0.06,1.29,97,1475,Correct
4F4K_congruent,83,115,1,115,53.45,73.75,0.06,1.16,115,1536,Correct
4F4K_congruent,83,116,1,107,48.01,32.16,0.05,0.51,115,1561,Incorrect
4F4K_congruent,83,117,1,107,68.26,40.95,0.08,0.64,107,2481,Correct
4F4K_congruent,83,118,1,107,71.32,56.13,0.08,0.88,107,1514,Correct
4F4K_congruent,83,119,1,115,62.19,77.48,0.07,1.22,115,1218,Correct
4F4K_congruent,83,120,1,107,61.25,32.31,0.07,0.51,115,936,Incorrect
4F4K_congruent,83,121,2,108,68.85,56.65,0.08,0.89,108,2075,Correct
4F4K_congruent,83,122,2,97,44.15,53.51,0.05,0.84,97,1547,Correct
4F4K_congruent,83,123,2,97,49.09,56.69,0.05,0.89,97,1712,Correct
4F4K_congruent,83,124,2,97,23.27,38.06,0.03,0.6,97,799,Correct
4F4K_congruent,83,125,2,108,57.67,26.59,0.06,0.42,108,938,Correct
4F4K_congruent,83,126,1,115,10.29,32.6,0.01,0.51,115,876,Correct
4F4K_congruent,83,127,2,108,53.21,28.9,0.06,0.45,108,563,Correct
4F4K_congruent,83,128,2,108,57.42,28.99,0.06,0.46,108,527,Correct
4F4K_congruent,83,129,2,97,51.52,62.85,0.06,0.99,108,533,Incorrect
4F4K_congruent,83,130,2,108,67.02,57.56,0.07,0.9,97,1384,Incorrect
4F4K_congruent,83,131,1,107,75.86,62.51,0.08,0.98,107,2575,Correct
4F4K_congruent,83,132,2,97,11.29,33.84,0.01,0.53,97,816,Correct
4F4K_congruent,83,133,1,115,48.58,71.6,0.05,1.12,115,1116,Correct
4F4K_congruent,83,134,2,97,39.6,58.48,0.04,0.92,97,5028,Correct
4F4K_congruent,83,135,1,115,40.47,48.93,0.05,0.77,107,1681,Incorrect
4F4K_congruent,83,136,1,115,28.69,54.37,0.03,0.85,115,819,Correct
4F4K_congruent,83,137,1,107,81.26,67.09,0.09,1.05,107,913,Correct
4F4K_congruent,83,138,1,107,59.54,45.29,0.07,0.71,115,896,Incorrect
4F4K_congruent,83,139,2,97,38.14,47.53,0.04,0.75,97,887,Correct
4F4K_congruent,83,140,2,108,48.43,26.99,0.05,0.42,97,1285,Incorrect
4F4K_congruent,83,141,2,108,83.03,52.65,0.09,0.83,108,706,Correct
4F4K_congruent,83,142,1,107,49.76,38.46,0.06,0.6,107,1058,Correct
4F4K_congruent,83,143,2,97,42.58,60.02,0.05,0.94,108,925,Incorrect
4F4K_congruent,83,144,2,108,63.47,54.54,0.07,0.86,108,646,Correct
4F4K_congruent,83,145,2,108,57.14,32.01,0.06,0.5,97,1874,Incorrect
4F4K_congruent,83,146,2,97,66.17,79.95,0.07,1.26,97,1532,Correct
4F4K_congruent,83,147,2,108,54.87,26.02,0.06,0.41,97,1541,Incorrect
4F4K_congruent,83,148,1,107,51.14,37.37,0.06,0.59,107,1271,Correct
4F4K_congruent,83,149,1,107,60.85,28.37,0.07,0.45,107,4098,Correct
4F4K_congruent,83,150,1,115,47.77,59.31,0.05,0.93,115,2170,Correct
4F4K_congruent,83,151,1,115,59.88,87.54,0.07,1.38,107,1491,Incorrect
4F4K_congruent,83,152,2,97,50.09,58.59,0.06,0.92,108,2178,Incorrect
4F4K_congruent,83,153,1,115,52.62,77.06,0.06,1.21,115,5864,Correct
4F4K_congruent,83,154,1,115,43.67,65.07,0.05,1.02,107,2506,Incorrect
4F4K_congruent,83,155,1,115,35.35,54.96,0.04,0.86,115,2153,Correct
4F4K_congruent,83,156,1,115,64.4,75.57,0.07,1.19,107,869,Incorrect
4F4K_congruent,83,157,2,97,22.97,44.64,0.03,0.7,97,940,Correct
4F4K_congruent,83,158,2,97,44.59,68.0,0.05,1.07,97,755,Correct
4F4K_congruent,83,159,2,97,35.4,43.79,0.04,0.69,108,432,Incorrect
4F4K_congruent,83,160,2,97,30.77,62.66,0.03,0.98,97,1068,Correct
4F4K_congruent,83,161,2,108,78.71,51.72,0.09,0.81,108,853,Correct
4F4K_congruent,83,162,2,108,74.06,45.09,0.08,0.71,108,1726,Correct
4F4K_congruent,83,163,2,97,13.09,40.6,0.01,0.64,97,1767,Correct
4F4K_congruent,83,164,1,115,47.71,68.28,0.05,1.07,107,2001,Incorrect
4F4K_congruent,83,165,2,97,40.21,48.43,0.04,0.76,97,1022,Correct
4F4K_congruent,83,166,2,108,44.99,24.43,0.05,0.38,107,1024,Incorrect
4F4K_congruent,83,167,1,107,85.9,62.27,0.1,0.98,107,915,Correct
4F4K_congruent,83,168,1,107,59.85,29.54,0.07,0.46,107,1021,Correct
4F4K_congruent,83,169,1,115,16.88,45.78,0.02,0.72,115,577,Correct
4F4K_congruent,83,170,1,115,50.22,69.76,0.06,1.1,107,802,Incorrect
4F4K_congruent,83,171,2,97,36.68,53.97,0.04,0.85,97,2472,Correct
4F4K_congruent,83,172,2,97,47.21,77.63,0.05,1.22,108,1112,Incorrect
4F4K_congruent,83,173,2,108,77.66,58.7,0.09,0.92,108,885,Correct
4F4K_congruent,83,174,2,97,34.05,58.72,0.04,0.92,97,1277,Correct
4F4K_congruent,83,175,1,107,68.62,38.9,0.08,0.61,107,1184,Correct
4F4K_congruent,83,176,1,107,83.34,53.98,0.09,0.85,107,597,Correct
4F4K_congruent,83,177,1,115,39.46,57.6,0.04,0.9,115,1094,Correct
4F4K_congruent,83,178,2,108,64.66,36.43,0.07,0.57,108,662,Correct
4F4K_congruent,83,179,1,115,15.46,44.52,0.02,0.7,115,994,Correct
4F4K_congruent,83,180,1,115,31.46,46.88,0.04,0.74,115,1074,Correct
4F4K_congruent,83,181,1,107,41.25,19.38,0.05,0.3,115,1607,Incorrect
4F4K_congruent,83,182,2,108,65.59,41.4,0.07,0.65,108,943,Correct
4F4K_congruent,83,183,2,97,52.85,70.43,0.06,1.11,108,1024,Incorrect
4F4K_congruent,83,184,1,107,68.88,59.34,0.08,0.93,107,3208,Correct
4F4K_congruent,83,185,1,107,58.39,49.95,0.07,0.78,107,1415,Correct
4F4K_congruent,83,186,2,108,52.97,22.25,0.06,0.35,97,1207,Incorrect
4F4K_congruent,83,187,2,97,26.83,41.03,0.03,0.64,97,706,Correct
4F4K_congruent,83,188,2,97,48.16,77.97,0.05,1.22,108,749,Incorrect
4F4K_congruent,83,189,2,108,69.81,56.28,0.08,0.88,108,843,Correct
4F4K_congruent,83,190,2,108,60.09,43.39,0.07,0.68,108,579,Correct
4F4K_congruent,83,191,1,107,48.94,25.0,0.05,0.39,107,938,Correct
4F4K_congruent,83,192,2,108,42.69,23.14,0.05,0.36,108,1001,Correct
4F4K_congruent,83,193,2,97,60.47,71.16,0.07,1.12,97,1008,Correct
4F4K_congruent,83,194,1,115,22.73,41.04,0.03,0.64,115,739,Correct
4F4K_congruent,83,195,1,115,61.59,71.57,0.07,1.12,115,1255,Correct
4F4K_congruent,83,196,2,97,15.76,41.05,0.02,0.64,97,1853,Correct
4F4K_congruent,83,197,1,115,55.33,66.36,0.06,1.04,115,646,Correct
4F4K_congruent,83,198,2,97,16.14,42.72,0.02,0.67,97,1128,Correct
4F4K_congruent,83,199,2,108,70.61,56.06,0.08,0.88,108,1268,Correct
4F4K_congruent,83,200,2,108,37.7,27.39,0.04,0.43,97,1509,Incorrect
4F4K_congruent,83,201,2,97,25.49,44.84,0.03,0.7,97,3730,Correct
4F4K_congruent,83,202,1,107,41.71,29.17,0.05,0.46,115,8135,Incorrect
4F4K_congruent,83,203,2,108,60.9,42.19,0.07,0.66,97,872,Incorrect
4F4K_congruent,83,204,2,108,40.15,18.67,0.04,0.29,97,843,Incorrect
4F4K_congruent,83,205,1,107,66.66,48.08,0.07,0.76,115,1286,Incorrect
4F4K_congruent,83,206,2,108,81.62,67.08,0.09,1.05,108,717,Correct
4F4K_congruent,83,207,1,107,68.77,59.39,0.08,0.93,115,2906,Incorrect
4F4K_congruent,83,208,1,115,52.69,62.45,0.06,0.98,107,1023,Incorrect
4F4K_congruent,83,209,2,97,49.77,59.04,0.06,0.93,97,1812,Correct
4F4K_congruent,83,210,2,97,28.78,59.08,0.03,0.93,97,668,Correct
4F4K_congruent,83,211,2,97,39.09,64.08,0.04,1.01,97,504,Correct
4F4K_congruent,83,212,1,115,61.55,86.0,0.07,1.35,115,1732,Correct
4F4K_congruent,83,213,2,97,31.58,62.56,0.04,0.98,97,788,Correct
4F4K_congruent,83,214,1,107,47.98,39.11,0.05,0.61,107,1957,Correct
4F4K_congruent,83,215,1,107,70.96,56.84,0.08,0.89,115,1507,Incorrect
4F4K_congruent,83,216,1,115,18.21,38.43,0.02,0.6,115,691,Correct
4F4K_congruent,83,217,2,97,52.42,72.39,0.06,1.14,97,943,Correct
4F4K_congruent,83,218,2,97,51.72,77.19,0.06,1.21,97,443,Correct
4F4K_congruent,83,219,1,107,45.39,33.76,0.05,0.53,115,923,Incorrect
4F4K_congruent,83,220,1,107,71.48,39.82,0.08,0.63,107,1026,Correct
4F4K_congruent,83,221,2,108,50.61,25.28,0.06,0.4,97,4240,Incorrect
4F4K_congruent,83,222,1,107,68.27,55.64,0.08,0.87,115,1031,Incorrect
4F4K_congruent,83,223,2,97,40.9,67.15,0.05,1.05,108,620,Incorrect
4F4K_congruent,83,224,1,115,19.22,34.33,0.02,0.54,115,1101,Correct
4F4K_congruent,83,225,1,107,35.99,11.65,0.04,0.18,115,903,Incorrect
4F4K_congruent,83,226,1,115,34.37,44.15,0.04,0.69,107,1025,Incorrect
4F4K_congruent,83,227,2,97,26.45,47.62,0.03,0.75,97,4083,Correct
4F4K_congruent,83,228,1,107,49.78,20.2,0.06,0.32,107,1969,Correct
4F4K_congruent,83,229,1,107,80.17,61.06,0.09,0.96,107,1112,Correct
4F4K_congruent,83,230,2,108,46.71,34.04,0.05,0.53,108,3608,Correct
4F4K_congruent,83,231,1,107,68.34,45.81,0.08,0.72,107,2949,Correct
4F4K_congruent,83,232,1,107,34.75,18.89,0.04,0.3,115,1485,Incorrect
4F4K_congruent,83,233,1,107,72.48,53.28,0.08,0.84,107,748,Correct
4F4K_congruent,83,234,1,107,36.15,20.55,0.04,0.32,107,1191,Correct
4F4K_congruent,83,235,2,97,19.5,42.86,0.02,0.67,97,600,Correct
4F4K_congruent,83,236,2,108,72.12,49.64,0.08,0.78,108,686,Correct
4F4K_congruent,83,237,1,115,27.43,50.99,0.03,0.8,107,1494,Incorrect
4F4K_congruent,83,238,2,97,32.95,60.67,0.04,0.95,97,2471,Correct
4F4K_congruent,83,239,1,107,78.26,64.22,0.09,1.01,107,518,Correct
4F4K_congruent,83,240,1,115,54.54,69.33,0.06,1.09,107,856,Incorrect
4F4K_congruent,83,241,1,107,33.18,10.74,0.04,0.17,115,1638,Incorrect
4F4K_congruent,83,242,1,115,26.04,49.87,0.03,0.78,107,1524,Incorrect
4F4K_congruent,83,243,1,107,80.37,61.54,0.09,0.97,107,1266,Correct
4F4K_congruent,83,244,1,115,63.3,86.4,0.07,1.36,115,2193,Correct
4F4K_congruent,83,245,2,97,18.35,44.4,0.02,0.7,97,1873,Correct
4F4K_congruent,83,246,1,107,57.12,39.71,0.06,0.62,107,2352,Correct
4F4K_congruent,83,247,2,97,41.18,72.8,0.05,1.14,97,2342,Correct
4F4K_congruent,83,248,1,107,64.59,39.44,0.07,0.62,107,2150,Correct
4F4K_congruent,83,249,1,115,31.33,49.81,0.04,0.78,107,1001,Incorrect
4F4K_congruent,83,250,2,97,40.34,56.13,0.05,0.88,108,1970,Incorrect
4F4K_congruent,83,251,2,108,53.76,32.69,0.06,0.51,108,4636,Correct
4F4K_congruent,83,252,1,107,62.07,40.39,0.07,0.63,107,1377,Correct
4F4K_congruent,83,253,1,107,59.68,43.72,0.07,0.69,107,660,Correct
4F4K_congruent,83,254,1,107,73.24,42.66,0.08,0.67,107,560,Correct
4F4K_congruent,83,255,1,115,24.75,49.33,0.03,0.77,115,536,Correct
4F4K_congruent,83,256,1,115,31.92,47.82,0.04,0.75,115,549,Correct
4F4K_congruent,83,257,1,115,15.9,38.79,0.02,0.61,115,2292,Correct
4F4K_congruent,83,258,1,115,26.31,54.1,0.03,0.85,115,719,Correct
4F4K_congruent,83,259,2,97,55.9,64.35,0.06,1.01,108,1650,Incorrect
4F4K_congruent,83,260,2,97,54.04,65.52,0.06,1.03,97,1115,Correct
4F4K_congruent,83,261,2,97,13.6,32.14,0.02,0.5,97,2190,Correct
4F4K_congruent,83,262,1,115,27.32,53.35,0.03,0.84,107,2340,Incorrect
4F4K_congruent,83,263,2,97,40.7,60.4,0.05,0.95,108,519,Incorrect
4F4K_congruent,83,264,1,115,50.23,78.32,0.06,1.23,107,1334,Incorrect
4F4K_congruent,83,265,1,115,61.02,84.43,0.07,1.33,115,846,Correct
4F4K_congruent,83,266,2,97,34.92,49.35,0.04,0.78,97,1050,Correct
4F4K_congruent,83,267,1,115,31.18,53.52,0.03,0.84,107,2430,Incorrect
4F4K_congruent,83,268,1,115,53.19,70.19,0.06,1.1,115,826,Correct
4F4K_congruent,83,269,2,108,63.6,37.26,0.07,0.59,108,1715,Correct
4F4K_congruent,83,270,1,115,39.47,62.83,0.04,0.99,115,2225,Correct
4F4K_congruent,83,271,2,97,62.41,84.53,0.07,1.33,108,1189,Incorrect
4F4K_congruent,83,272,1,107,47.16,30.43,0.05,0.48,107,1226,Correct
4F4K_congruent,83,273,2,97,27.65,48.09,0.03,0.76,108,905,Incorrect
4F4K_congruent,83,274,2,108,37.63,14.6,0.04,0.23,108,1708,Correct
4F4K_congruent,83,275,1,115,26.43,41.49,0.03,0.65,115,1288,Correct
4F4K_congruent,83,276,1,115,36.61,56.13,0.04,0.88,115,712,Correct
4F4K_congruent,83,277,1,115,51.15,63.88,0.06,1.0,115,841,Correct
4F4K_congruent,83,278,1,107,48.17,39.51,0.05,0.62,115,1331,Incorrect
4F4K_congruent,83,279,1,107,89.86,65.95,0.1,1.04,107,741,Correct
4F4K_congruent,83,280,2,97,56.61,73.97,0.06,1.16,108,2916,Incorrect
4F4K_congruent,83,281,1,115,20.39,50.86,0.02,0.8,115,1899,Correct
4F4K_congruent,83,282,2,97,42.62,59.33,0.05,0.93,108,873,Incorrect
4F4K_congruent,83,283,1,115,34.12,53.8,0.04,0.85,115,739,Correct
4F4K_congruent,83,284,2,108,41.57,21.34,0.05,0.34,108,982,Correct
4F4K_congruent,83,285,2,97,47.75,69.15,0.05,1.09,97,551,Correct
4F4K_congruent,83,286,1,115,39.73,69.83,0.04,1.1,115,1592,Correct
4F4K_congruent,83,287,1,107,77.22,62.31,0.09,0.98,107,397,Correct
4F4K_congruent,83,288,1,107,42.11,24.95,0.05,0.39,115,1108,Incorrect
4F4K_congruent,83,289,2,97,25.74,41.54,0.03,0.65,97,755,Correct
4F4K_congruent,83,290,1,107,30.8,15.35,0.03,0.24,107,1206,Correct
4F4K_congruent,83,291,1,107,68.09,56.13,0.08,0.88,115,557,Incorrect
4F4K_congruent,83,292,1,107,72.9,42.97,0.08,0.67,107,538,Correct
4F4K_congruent,83,293,1,107,59.07,29.91,0.07,0.47,107,793,Correct
4F4K_congruent,83,294,2,108,56.35,40.38,0.06,0.63,108,714,Correct
4F4K_congruent,83,295,1,107,32.94,12.05,0.04,0.19,115,654,Incorrect
4F4K_congruent,83,296,1,115,27.63,46.56,0.03,0.73,115,816,Correct
4F4K_congruent,83,297,2,108,87.89,63.8,0.1,1.0,108,764,Correct
4F4K_congruent,83,298,1,115,17.61,40.48,0.02,0.64,115,650,Correct
4F4K_congruent,83,299,2,97,46.78,66.21,0.05,1.04,108,922,Incorrect
4F4K_congruent,83,300,1,107,48.3,32.56,0.05,0.51,115,3493,Incorrect
4F4K_congruent,83,301,2,108,46.68,35.93,0.05,0.56,97,1047,Incorrect
4F4K_congruent,83,302,1,107,72.89,47.02,0.08,0.74,107,4629,Correct
4F4K_congruent,83,303,1,107,58.23,31.24,0.07,0.49,115,6382,Incorrect
4F4K_congruent,83,304,1,115,35.77,62.93,0.04,0.99,107,958,Incorrect
4F4K_congruent,83,305,2,108,71.79,59.36,0.08,0.93,97,3580,Incorrect
4F4K_congruent,83,306,2,97,54.24,76.3,0.06,1.2,108,986,Incorrect
4F4K_congruent,83,307,1,115,57.87,70.17,0.06,1.1,115,1450,Correct
4F4K_congruent,83,308,1,107,82.54,58.28,0.09,0.92,107,730,Correct
4F4K_congruent,83,309,2,108,69.51,51.78,0.08,0.81,97,911,Incorrect
4F4K_congruent,83,310,1,115,31.92,53.65,0.04,0.84,115,867,Correct
4F4K_congruent,83,311,1,107,52.53,42.12,0.06,0.66,107,2337,Correct
4F4K_congruent,83,312,2,108,81.37,63.77,0.09,1.0,108,855,Correct
4F4K_congruent,83,313,2,108,84.35,65.33,0.09,1.03,108,449,Correct
4F4K_congruent,83,314,2,108,75.66,57.01,0.08,0.9,108,635,Correct
4F4K_congruent,83,315,2,97,61.7,73.7,0.07,1.16,108,515,Incorrect
4F4K_congruent,83,316,1,107,47.83,33.9,0.05,0.53,115,3259,Incorrect
4F4K_congruent,83,317,2,108,56.8,37.36,0.06,0.59,108,1545,Correct
4F4K_congruent,83,318,2,108,87.06,69.74,0.1,1.1,108,562,Correct
4F4K_congruent,83,319,2,97,55.08,71.2,0.06,1.12,97,891,Correct
4F4K_congruent,83,320,2,97,26.12,38.64,0.03,0.61,108,794,Incorrect
4F4K_congruent,83,321,2,108,47.66,21.83,0.05,0.34,97,1095,Incorrect
4F4K_congruent,83,322,2,97,15.11,44.82,0.02,0.7,97,738,Correct
4F4K_congruent,83,323,1,107,51.49,33.81,0.06,0.53,107,1524,Correct
4F4K_congruent,83,324,1,115,56.24,78.83,0.06,1.24,115,1654,Correct
4F4K_congruent,83,325,1,107,44.27,21.31,0.05,0.33,115,980,Incorrect
4F4K_congruent,83,326,2,108,66.91,40.98,0.07,0.64,108,722,Correct
4F4K_congruent,83,327,2,97,41.18,62.04,0.05,0.97,108,1017,Incorrect
4F4K_congruent,83,328,1,107,61.68,29.34,0.07,0.46,115,1049,Incorrect
4F4K_congruent,83,329,1,107,65.05,40.26,0.07,0.63,115,1664,Incorrect
4F4K_congruent,83,330,1,115,61.0,80.49,0.07,1.26,107,1699,Incorrect
4F4K_congruent,83,331,1,115,65.54,88.03,0.07,1.38,115,913,Correct
4F4K_congruent,83,332,1,107,40.31,20.69,0.05,0.32,107,1095,Correct
4F4K_congruent,83,333,2,97,43.52,67.14,0.05,1.05,108,964,Incorrect
4F4K_congruent,83,334,2,97,28.45,60.41,0.03,0.95,97,889,Correct
4F4K_congruent,83,335,2,97,58.43,78.51,0.07,1.23,97,781,Correct
4F4K_congruent,83,336,1,107,76.63,49.21,0.09,0.77,115,660,Incorrect
4F4K_congruent,83,337,1,107,39.89,15.12,0.04,0.24,115,1228,Incorrect
4F4K_congruent,83,338,2,108,70.09,55.35,0.08,0.87,108,714,Correct
4F4K_congruent,83,339,2,108,30.45,12.44,0.03,0.2,97,1674,Incorrect
4F4K_congruent,83,340,2,97,46.08,71.08,0.05,1.12,108,1501,Incorrect
4F4K_congruent,83,341,2,108,31.66,17.61,0.04,0.28,97,716,Incorrect
4F4K_congruent,83,342,2,108,74.01,63.5,0.08,1.0,97,808,Incorrect
4F4K_congruent,83,343,1,115,44.29,55.85,0.05,0.88,107,1578,Incorrect
4F4K_congruent,83,344,1,107,72.46,40.2,0.08,0.63,115,1750,Incorrect
4F4K_congruent,83,345,1,115,51.59,80.37,0.06,1.26,115,942,Correct
4F4K_congruent,83,346,1,115,64.05,83.8,0.07,1.32,115,667,Correct
4F4K_congruent,83,347,2,108,72.66,40.56,0.08,0.64,108,2026,Correct
4F4K_congruent,83,348,2,108,69.7,42.92,0.08,0.67,108,719,Correct
4F4K_congruent,83,349,2,108,43.17,27.75,0.05,0.44,108,3461,Correct
4F4K_congruent,83,350,2,108,34.44,14.96,0.04,0.24,108,1070,Correct
4F4K_congruent,83,351,1,115,55.15,80.77,0.06,1.27,107,994,Incorrect
4F4K_congruent,83,352,2,108,62.01,43.08,0.07,0.68,97,770,Incorrect
4F4K_congruent,83,353,2,97,31.4,59.76,0.04,0.94,97,1792,Correct
4F4K_congruent,83,354,2,97,14.14,41.91,0.02,0.66,97,935,Correct
4F4K_congruent,83,355,2,108,47.02,31.33,0.05,0.49,108,953,Correct
4F4K_congruent,83,356,2,108,59.23,49.24,0.07,0.77,108,672,Correct
4F4K_congruent,83,357,2,108,49.09,34.7,0.05,0.55,108,463,Correct
4F4K_congruent,83,358,1,115,45.79,56.42,0.05,0.89,115,2329,Correct
4F4K_congruent,83,359,1,115,44.27,72.95,0.05,1.15,107,2128,Incorrect
4F4K_congruent,83,360,1,107,51.46,28.96,0.06,0.45,115,1621,Incorrect
4F4K_congruent,83,361,2,97,67.0,83.35,0.07,1.31,108,1390,Incorrect
4F4K_congruent,83,362,2,97,45.05,64.8,0.05,1.02,97,668,Correct
4F4K_congruent,83,363,1,107,85.75,56.54,0.1,0.89,107,876,Correct
4F4K_congruent,83,364,1,107,75.55,64.35,0.08,1.01,107,688,Correct
4F4K_congruent,83,365,1,115,30.44,39.03,0.03,0.61,115,729,Correct
4F4K_congruent,83,366,1,115,51.38,74.7,0.06,1.17,115,758,Correct
4F4K_congruent,83,367,2,97,41.09,56.61,0.05,0.89,108,825,Incorrect
4F4K_congruent,83,368,1,107,83.59,64.24,0.09,1.01,107,1172,Correct
4F4K_congruent,83,369,1,115,43.22,56.78,0.05,0.89,115,1299,Correct
4F4K_congruent,83,370,1,107,46.59,21.74,0.05,0.34,115,703,Incorrect
4F4K_congruent,83,371,1,115,32.58,55.46,0.04,0.87,107,919,Incorrect
4F4K_congruent,83,372,2,97,36.11,67.47,0.04,1.06,97,982,Correct
4F4K_congruent,83,373,2,97,35.49,63.65,0.04,1.0,108,1174,Incorrect
4F4K_congruent,83,374,1,107,73.19,41.13,0.08,0.65,107,2072,Correct
4F4K_congruent,83,375,1,107,59.18,32.21,0.07,0.51,107,1015,Correct
4F4K_congruent,83,376,1,107,57.39,32.23,0.06,0.51,107,1135,Correct
4F4K_congruent,83,377,1,115,32.61,55.45,0.04,0.87,115,1827,Correct
4F4K_congruent,83,378,1,107,35.45,20.36,0.04,0.32,107,2633,Correct
4F4K_congruent,83,379,1,115,29.68,48.7,0.03,0.76,115,1026,Correct
4F4K_congruent,83,380,2,97,64.83,77.98,0.07,1.22,108,542,Incorrect
4F4K_congruent,83,381,1,107,77.94,57.78,0.09,0.91,107,2192,Correct
4F4K_congruent,83,382,2,108,74.36,42.53,0.08,0.67,108,672,Correct
4F4K_congruent,83,383,2,108,70.39,59.47,0.08,0.93,108,624,Correct
4F4K_congruent,83,384,2,97,42.16,66.74,0.05,1.05,97,1112,Correct
4F4K_congruent,83,385,1,107,40.07,16.73,0.04,0.26,107,7699,Correct
4F4K_congruent,83,386,2,97,59.19,71.73,0.07,1.13,108,1162,Incorrect
4F4K_congruent,83,387,2,108,61.25,53.38,0.07,0.84,108,2636,Correct
4F4K_congruent,83,388,2,97,51.45,72.07,0.06,1.13,108,1736,Incorrect
4F4K_congruent,83,389,1,107,73.02,47.31,0.08,0.74,107,1357,Correct
4F4K_congruent,83,390,1,115,66.65,83.19,0.07,1.31,107,919,Incorrect
4F4K_congruent,83,391,2,108,42.25,15.49,0.05,0.24,97,1103,Incorrect
4F4K_congruent,83,392,2,97,30.71,56.73,0.03,0.89,97,762,Correct
4F4K_congruent,83,393,2,108,49.08,35.02,0.05,0.55,97,652,Incorrect
4F4K_congruent,83,394,1,115,22.78,34.97,0.03,0.55,107,1805,Incorrect
4F4K_congruent,83,395,1,107,78.87,51.43,0.09,0.81,107,1117,Correct
4F4K_congruent,83,396,1,115,55.81,63.82,0.06,1.0,107,656,Incorrect
4F4K_congruent,83,397,2,97,62.07,82.73,0.07,1.3,108,2215,Incorrect
4F4K_congruent,83,398,1,115,41.81,60.26,0.05,0.95,115,1844,Correct
