condition,subject,trial,sub_task,cat,x,y,xt,yt,resp,rt,fb
4F4K_incongruent,44,0,2,97,81.41,64.45,0.09,1.01,108,10932,Incorrect
4F4K_incongruent,44,1,2,97,87.92,65.66,0.1,1.03,97,1473,Correct
4F4K_incongruent,44,2,2,108,19.7,43.48,0.02,0.68,108,3672,Correct
4F4K_incongruent,44,3,1,115,34.68,51.49,0.04,0.81,115,6447,Correct
4F4K_incongruent,44,4,2,108,39.71,60.82,0.04,0.96,97,4986,Incorrect
4F4K_incongruent,44,5,1,107,60.0,38.79,0.07,0.61,107,4419,Correct
4F4K_incongruent,44,6,1,115,36.24,56.96,0.04,0.89,107,3513,Incorrect
4F4K_incongruent,44,7,2,97,41.86,26.2,0.05,0.41,108,3132,Incorrect
4F4K_incongruent,44,8,2,97,66.95,53.99,0.07,0.85,97,2693,Correct
4F4K_incongruent,44,9,2,97,71.7,40.84,0.08,0.64,97,1450,Correct
4F4K_incongruent,44,10,1,107,69.51,50.65,0.08,0.8,115,1635,Incorrect
4F4K_incongruent,44,11,1,115,37.44,51.62,0.04,0.81,107,1604,Incorrect
4F4K_incongruent,44,12,2,97,37.31,22.78,0.04,0.36,108,17679,Incorrect
4F4K_incongruent,44,13,1,115,55.18,76.43,0.06,1.2,115,2147,Correct
4F4K_incongruent,44,14,2,97,79.34,58.43,0.09,0.92,97,1022,Correct
4F4K_incongruent,44,15,2,97,55.64,40.84,0.06,0.64,97,1360,Correct
4F4K_incongruent,44,16,2,108,26.03,44.37,0.03,0.7,108,1153,Correct
4F4K_incongruent,44,17,2,97,54.66,34.02,0.06,0.53,97,1279,Correct
4F4K_incongruent,44,18,2,97,59.4,52.0,0.07,0.82,97,804,Correct
4F4K_incongruent,44,19,1,115,43.11,65.6,0.05,1.03,115,10406,Correct
4F4K_incongruent,44,20,2,97,77.86,48.73,0.09,0.77,97,2211,Correct
4F4K_incongruent,44,21,2,108,36.31,56.63,0.04,0.89,108,4788,Correct
4F4K_incongruent,44,22,1,115,16.53,42.52,0.02,0.67,107,1516,Incorrect
4F4K_incongruent,44,23,1,115,55.0,65.6,0.06,1.03,107,1190,Incorrect
4F4K_incongruent,44,24,1,115,19.87,41.21,0.02,0.65,115,1109,Correct
4F4K_incongruent,44,25,2,97,72.62,57.64,0.08,0.91,97,846,Correct
4F4K_incongruent,44,26,1,115,14.79,37.34,0.02,0.59,115,1293,Correct
4F4K_incongruent,44,27,2,108,21.08,37.71,0.02,0.59,108,2080,Correct
4F4K_incongruent,44,28,1,107,79.34,58.09,0.09,0.91,115,1317,Incorrect
4F4K_incongruent,44,29,2,108,22.22,47.88,0.02,0.75,108,907,Correct
4F4K_incongruent,44,30,1,115,60.74,71.48,0.07,1.12,115,1349,Correct
4F4K_incongruent,44,31,1,115,45.21,76.1,0.05,1.2,107,712,Incorrect
4F4K_incongruent,44,32,2,108,11.17,34.38,0.01,0.54,108,1168,Correct
4F4K_incongruent,44,33,2,108,42.99,57.88,0.05,0.91,97,3580,Incorrect
4F4K_incongruent,44,34,1,115,17.95,32.88,0.02,0.52,107,2452,Incorrect
4F4K_incongruent,44,35,1,115,25.3,39.19,0.03,0.62,115,634,Correct
4F4K_incongruent,44,36,1,115,25.06,55.8,0.03,0.88,115,1072,Correct
4F4K_incongruent,44,37,1,115,36.27,52.59,0.04,0.83,115,1736,Correct
4F4K_incongruent,44,38,2,97,49.7,32.43,0.06,0.51,97,882,Correct
4F4K_incongruent,44,39,1,107,56.92,44.89,0.06,0.71,115,3030,Incorrect
4F4K_incongruent,44,40,1,107,81.97,54.85,0.09,0.86,107,1624,Correct
4F4K_incongruent,44,41,1,107,45.05,34.41,0.05,0.54,107,6388,Correct
4F4K_incongruent,44,42,1,107,76.44,52.9,0.09,0.83,107,990,Correct
4F4K_incongruent,44,43,1,107,64.34,50.11,0.07,0.79,107,1174,Correct
4F4K_incongruent,44,44,1,107,54.03,41.58,0.06,0.65,107,879,Correct
4F4K_incongruent,44,45,2,108,22.09,45.82,0.02,0.72,108,1121,Correct
4F4K_incongruent,44,46,2,97,79.93,59.59,0.09,0.94,97,827,Correct
4F4K_incongruent,44,47,2,108,40.56,66.93,0.05,1.05,108,1296,Correct
4F4K_incongruent,44,48,1,115,24.24,45.99,0.03,0.72,115,5502,Correct
4F4K_incongruent,44,49,1,115,55.3,76.57,0.06,1.2,107,1779,Incorrect
4F4K_incongruent,44,50,2,108,22.29,34.2,0.02,0.54,108,7742,Correct
4F4K_incongruent,44,51,1,115,23.23,48.95,0.03,0.77,115,7271,Correct
4F4K_incongruent,44,52,2,108,35.1,51.2,0.04,0.8,108,1896,Correct
4F4K_incongruent,44,53,1,107,46.39,23.89,0.05,0.38,107,3117,Correct
4F4K_incongruent,44,54,1,115,61.73,73.52,0.07,1.15,107,4600,Incorrect
4F4K_incongruent,44,55,1,115,61.03,76.93,0.07,1.21,115,781,Correct
4F4K_incongruent,44,56,2,108,61.01,72.79,0.07,1.14,97,4122,Incorrect
4F4K_incongruent,44,57,1,107,58.5,35.96,0.07,0.56,107,8088,Correct
4F4K_incongruent,44,58,2,108,67.96,83.44,0.08,1.31,97,3144,Incorrect
4F4K_incongruent,44,59,1,107,51.7,26.01,0.06,0.41,107,3611,Correct
4F4K_incongruent,44,60,1,107,54.49,44.26,0.06,0.7,107,3677,Correct
4F4K_incongruent,44,61,1,107,48.66,19.33,0.05,0.3,107,1138,Correct
4F4K_incongruent,44,62,2,108,16.47,44.23,0.02,0.69,108,1522,Correct
4F4K_incongruent,44,63,2,97,73.27,63.03,0.08,0.99,97,1081,Correct
4F4K_incongruent,44,64,2,97,51.38,31.27,0.06,0.49,108,3952,Incorrect
4F4K_incongruent,44,65,2,97,44.97,36.37,0.05,0.57,97,989,Correct
4F4K_incongruent,44,66,2,97,57.47,36.58,0.06,0.57,97,1115,Correct
4F4K_incongruent,44,67,2,97,67.38,35.59,0.08,0.56,97,1157,Correct
4F4K_incongruent,44,68,1,115,34.71,46.16,0.04,0.73,115,2309,Correct
4F4K_incongruent,44,69,2,97,42.74,16.74,0.05,0.26,108,1586,Incorrect
4F4K_incongruent,44,70,2,108,67.31,84.74,0.08,1.33,97,809,Incorrect
4F4K_incongruent,44,71,2,97,88.63,62.64,0.1,0.98,97,831,Correct
4F4K_incongruent,44,72,2,108,27.07,46.88,0.03,0.74,108,1600,Correct
4F4K_incongruent,44,73,1,115,50.51,59.98,0.06,0.94,115,5271,Correct
4F4K_incongruent,44,74,2,108,38.01,68.43,0.04,1.07,108,8141,Correct
4F4K_incongruent,44,75,2,108,29.52,58.04,0.03,0.91,108,2477,Correct
4F4K_incongruent,44,76,1,115,17.52,41.22,0.02,0.65,115,2443,Correct
4F4K_incongruent,44,77,2,97,69.72,39.55,0.08,0.62,97,2058,Correct
4F4K_incongruent,44,78,1,115,26.97,52.05,0.03,0.82,115,1343,Correct
4F4K_incongruent,44,79,1,107,43.07,30.61,0.05,0.48,115,5461,Incorrect
4F4K_incongruent,44,80,2,97,77.07,63.6,0.09,1.0,97,2668,Incorrect
4F4K_incongruent,44,81,1,107,38.78,23.62,0.04,0.37,115,3342,Incorrect
4F4K_incongruent,44,82,1,107,36.04,18.9,0.04,0.3,107,1029,Correct
4F4K_incongruent,44,83,2,108,37.6,67.39,0.04,1.06,108,1413,Correct
4F4K_incongruent,44,84,1,115,36.72,65.49,0.04,1.03,115,3537,Correct
4F4K_incongruent,44,85,2,97,43.78,16.75,0.05,0.26,108,2090,Incorrect
4F4K_incongruent,44,86,1,107,37.31,24.21,0.04,0.38,115,2960,Incorrect
4F4K_incongruent,44,87,2,108,32.25,60.25,0.04,0.95,108,2516,Correct
4F4K_incongruent,44,88,2,97,59.64,39.52,0.07,0.62,97,686,Correct
4F4K_incongruent,44,89,1,115,45.58,62.8,0.05,0.99,107,4026,Incorrect
4F4K_incongruent,44,90,1,107,63.76,46.8,0.07,0.74,107,16826,Correct
4F4K_incongruent,44,91,1,115,32.12,48.77,0.04,0.77,115,7259,Correct
4F4K_incongruent,44,92,1,115,60.42,72.22,0.07,1.13,107,2134,Incorrect
4F4K_incongruent,44,93,1,115,66.44,80.74,0.07,1.27,115,1136,Correct
4F4K_incongruent,44,94,1,115,38.8,48.42,0.04,0.76,107,1997,Incorrect
4F4K_incongruent,44,95,1,115,33.18,55.07,0.04,0.87,115,912,Correct
4F4K_incongruent,44,96,1,115,43.15,56.81,0.05,0.89,115,569,Correct
4F4K_incongruent,44,97,1,115,16.94,40.48,0.02,0.64,107,1451,Incorrect
4F4K_incongruent,44,98,2,108,48.33,63.91,0.05,1.0,108,2114,Correct
4F4K_incongruent,44,99,2,108,32.2,40.69,0.04,0.64,108,2225,Correct
4F4K_incongruent,44,100,2,108,46.33,65.2,0.05,1.02,108,6521,Correct
4F4K_incongruent,44,101,1,107,60.91,28.67,0.07,0.45,107,2767,Correct
4F4K_incongruent,44,102,2,108,51.45,69.41,0.06,1.09,108,2845,Correct
4F4K_incongruent,44,103,1,107,51.3,26.98,0.06,0.42,107,2197,Correct
4F4K_incongruent,44,104,2,97,74.34,60.93,0.08,0.96,97,4892,Correct
4F4K_incongruent,44,105,1,115,50.36,80.11,0.06,1.26,107,4248,Incorrect
4F4K_incongruent,44,106,2,97,85.89,69.71,0.1,1.09,97,1658,Correct
4F4K_incongruent,44,107,1,107,73.93,44.39,0.08,0.7,107,735,Correct
4F4K_incongruent,44,108,2,97,54.04,36.63,0.06,0.58,108,1429,Incorrect
4F4K_incongruent,44,109,2,108,14.88,31.25,0.02,0.49,108,1587,Correct
4F4K_incongruent,44,110,2,97,39.66,19.23,0.04,0.3,108,2026,Incorrect
4F4K_incongruent,44,111,1,107,81.16,52.98,0.09,0.83,107,2581,Correct
4F4K_incongruent,44,112,1,107,59.47,48.39,0.07,0.76,107,4470,Correct
4F4K_incongruent,44,113,2,108,37.42,69.59,0.04,1.09,108,1449,Correct
4F4K_incongruent,44,114,2,108,36.51,53.92,0.04,0.85,108,836,Correct
4F4K_incongruent,44,115,2,108,37.9,69.68,0.04,1.09,108,5891,Correct
4F4K_incongruent,44,116,2,108,59.83,82.46,0.07,1.3,108,5237,Correct
4F4K_incongruent,44,117,1,107,53.4,46.25,0.06,0.73,115,2286,Incorrect
4F4K_incongruent,44,118,2,108,12.97,33.59,0.01,0.53,108,2501,Correct
4F4K_incongruent,44,119,2,108,30.97,55.56,0.03,0.87,108,1229,Correct
4F4K_incongruent,44,120,2,97,79.08,52.57,0.09,0.83,97,1454,Correct
4F4K_incongruent,44,121,2,97,80.04,50.14,0.09,0.79,97,1293,Correct
4F4K_incongruent,44,122,2,108,44.6,73.72,0.05,1.16,108,3636,Correct
4F4K_incongruent,44,123,1,107,82.55,65.4,0.09,1.03,107,5623,Correct
4F4K_incongruent,44,124,2,108,33.95,53.2,0.04,0.84,108,7507,Correct
4F4K_incongruent,44,125,1,107,34.18,15.37,0.04,0.24,115,3792,Incorrect
4F4K_incongruent,44,126,2,97,78.23,61.82,0.09,0.97,97,1488,Correct
4F4K_incongruent,44,127,2,108,19.84,37.44,0.02,0.59,108,2029,Correct
4F4K_incongruent,44,128,2,97,54.49,39.54,0.06,0.62,97,3412,Correct
4F4K_incongruent,44,129,2,108,25.28,41.54,0.03,0.65,108,1055,Correct
4F4K_incongruent,44,130,2,108,41.04,59.57,0.05,0.94,108,1190,Correct
4F4K_incongruent,44,131,1,115,15.19,33.87,0.02,0.53,115,1432,Correct
4F4K_incongruent,44,132,1,107,81.2,54.35,0.09,0.85,107,1659,Correct
4F4K_incongruent,44,133,1,115,36.14,65.72,0.04,1.03,107,1148,Incorrect
4F4K_incongruent,44,134,1,107,46.18,27.16,0.05,0.43,115,1287,Incorrect
4F4K_incongruent,44,135,1,107,83.18,57.14,0.09,0.9,115,906,Incorrect
4F4K_incongruent,44,136,2,97,48.62,25.46,0.05,0.4,108,1475,Incorrect
4F4K_incongruent,44,137,2,97,38.27,11.98,0.04,0.19,108,1933,Incorrect
4F4K_incongruent,44,138,2,97,49.4,30.14,0.06,0.47,97,1161,Correct
4F4K_incongruent,44,139,2,108,28.91,60.17,0.03,0.95,108,2584,Correct
4F4K_incongruent,44,140,1,107,59.82,34.25,0.07,0.54,107,2015,Correct
4F4K_incongruent,44,141,2,97,35.77,14.26,0.04,0.22,108,2685,Incorrect
4F4K_incongruent,44,142,1,115,56.35,85.61,0.06,1.34,107,10907,Incorrect
4F4K_incongruent,44,143,1,107,73.81,52.12,0.08,0.82,115,1827,Incorrect
4F4K_incongruent,44,144,2,108,69.5,86.74,0.08,1.36,97,2529,Incorrect
4F4K_incongruent,44,145,1,107,58.56,43.76,0.07,0.69,107,8924,Correct
4F4K_incongruent,44,146,1,115,48.49,67.26,0.05,1.06,107,2333,Incorrect
4F4K_incongruent,44,147,1,115,51.59,70.64,0.06,1.11,115,1293,Correct
4F4K_incongruent,44,148,2,108,61.18,78.4,0.07,1.23,97,4245,Incorrect
4F4K_incongruent,44,149,2,97,52.47,28.36,0.06,0.45,97,985,Correct
4F4K_incongruent,44,150,1,115,39.16,69.41,0.04,1.09,115,1298,Correct
4F4K_incongruent,44,151,2,108,61.58,82.74,0.07,1.3,108,3111,Correct
4F4K_incongruent,44,152,2,108,64.43,78.83,0.07,1.24,108,2263,Correct
4F4K_incongruent,44,153,2,97,62.36,32.48,0.07,0.51,97,1359,Correct
4F4K_incongruent,44,154,2,97,35.38,11.3,0.04,0.18,97,3092,Correct
4F4K_incongruent,44,155,1,107,70.01,46.28,0.08,0.73,107,1466,Correct
4F4K_incongruent,44,156,2,108,18.26,33.29,0.02,0.52,108,3284,Correct
4F4K_incongruent,44,157,2,97,77.59,56.69,0.09,0.89,108,3034,Incorrect
4F4K_incongruent,44,158,1,107,75.15,52.16,0.08,0.82,107,2714,Correct
4F4K_incongruent,44,159,1,115,52.65,64.65,0.06,1.02,107,4140,Incorrect
4F4K_incongruent,44,160,2,108,53.19,66.07,0.06,1.04,108,2395,Correct
4F4K_incongruent,44,161,2,108,56.72,66.5,0.06,1.04,108,1703,Correct
4F4K_incongruent,44,162,2,97,84.4,54.64,0.09,0.86,97,4695,Correct
4F4K_incongruent,44,163,1,107,84.25,67.62,0.09,1.06,107,3010,Correct
4F4K_incongruent,44,164,2,108,57.64,70.2,0.06,1.1,108,4514,Correct
4F4K_incongruent,44,165,2,97,77.62,51.01,0.09,0.8,108,2335,Incorrect
4F4K_incongruent,44,166,2,108,20.1,50.92,0.02,0.8,108,1682,Correct
4F4K_incongruent,44,167,1,115,31.31,61.34,0.04,0.96,115,2131,Correct
4F4K_incongruent,44,168,2,108,49.42,59.4,0.06,0.93,108,5235,Correct
4F4K_incongruent,44,169,2,108,56.46,68.56,0.06,1.08,108,2101,Correct
4F4K_incongruent,44,170,1,115,18.16,32.31,0.02,0.51,115,1349,Correct
4F4K_incongruent,44,171,1,107,49.86,32.98,0.06,0.52,107,3159,Correct
4F4K_incongruent,44,172,2,97,30.45,14.62,0.03,0.23,97,4118,Correct
4F4K_incongruent,44,173,1,115,65.99,78.17,0.07,1.23,107,2131,Incorrect
4F4K_incongruent,44,174,2,108,27.87,47.85,0.03,0.75,108,2674,Correct
4F4K_incongruent,44,175,1,107,87.05,64.95,0.1,1.02,107,5159,Correct
4F4K_incongruent,44,176,2,108,35.61,55.46,0.04,0.87,108,2122,Correct
4F4K_incongruent,44,177,1,107,57.9,38.73,0.06,0.61,107,3063,Correct
4F4K_incongruent,44,178,1,107,74.59,41.83,0.08,0.66,107,4565,Correct
4F4K_incongruent,44,179,1,107,76.43,63.08,0.09,0.99,107,1464,Correct
4F4K_incongruent,44,180,2,97,47.02,36.55,0.05,0.57,97,23152,Incorrect
4F4K_incongruent,44,181,2,108,39.38,50.44,0.04,0.79,108,2363,Incorrect
4F4K_incongruent,44,182,2,108,28.57,60.93,0.03,0.96,108,2850,Correct
4F4K_incongruent,44,183,2,108,68.56,87.96,0.08,1.38,108,4238,Correct
4F4K_incongruent,44,184,2,108,41.83,56.08,0.05,0.88,108,1080,Correct
4F4K_incongruent,44,185,1,115,61.37,83.26,0.07,1.31,115,12295,Incorrect
4F4K_incongruent,44,186,1,115,56.69,80.52,0.06,1.26,115,809,Correct
4F4K_incongruent,44,187,2,97,51.61,32.09,0.06,0.5,97,1090,Correct
4F4K_incongruent,44,188,1,107,59.74,33.09,0.07,0.52,107,918,Correct
4F4K_incongruent,44,189,2,97,34.99,13.79,0.04,0.22,97,7614,Incorrect
4F4K_incongruent,44,190,2,108,30.7,44.53,0.03,0.7,108,1019,Correct
4F4K_incongruent,44,191,2,97,42.77,28.05,0.05,0.44,97,964,Correct
4F4K_incongruent,44,192,2,108,42.03,65.3,0.05,1.03,108,2514,Correct
4F4K_incongruent,44,193,2,97,55.66,29.63,0.06,0.47,97,1062,Correct
4F4K_incongruent,44,194,2,97,41.2,27.82,0.05,0.44,97,2724,Incorrect
4F4K_incongruent,44,195,2,97,60.52,49.95,0.07,0.78,97,1339,Correct
4F4K_incongruent,44,196,1,107,67.19,45.93,0.08,0.72,107,2424,Correct
4F4K_incongruent,44,197,2,108,40.7,53.1,0.05,0.83,108,6001,Correct
4F4K_incongruent,44,198,2,108,40.95,64.62,0.05,1.02,108,1640,Correct
4F4K_incongruent,44,199,1,115,43.7,50.46,0.05,0.79,115,1686,Correct
4F4K_incongruent,44,200,1,115,53.81,83.01,0.06,1.3,115,3764,Correct
4F4K_incongruent,44,201,2,108,34.59,44.97,0.04,0.71,108,1572,Correct
4F4K_incongruent,44,202,1,115,15.5,36.93,0.02,0.58,115,11531,Correct
4F4K_incongruent,44,203,1,115,21.34,51.13,0.02,0.8,115,1421,Correct
4F4K_incongruent,44,204,2,97,41.2,29.56,0.05,0.46,97,7103,Correct
4F4K_incongruent,44,205,2,97,41.69,26.1,0.05,0.41,97,840,Correct
4F4K_incongruent,44,206,1,107,87.18,60.33,0.1,0.95,115,1567,Incorrect
4F4K_incongruent,44,207,1,107,47.92,29.75,0.05,0.47,107,1029,Correct
4F4K_incongruent,44,208,1,107,70.71,53.45,0.08,0.84,115,1316,Incorrect
4F4K_incongruent,44,209,2,108,52.8,67.66,0.06,1.06,108,4743,Incorrect
4F4K_incongruent,44,210,1,107,43.49,34.64,0.05,0.54,107,19074,Correct
4F4K_incongruent,44,211,2,97,77.89,56.77,0.09,0.89,97,2295,Incorrect
4F4K_incongruent,44,212,1,115,26.3,36.04,0.03,0.57,115,1632,Correct
4F4K_incongruent,44,213,2,97,58.55,38.06,0.07,0.6,97,4449,Correct
4F4K_incongruent,44,214,1,107,47.84,40.88,0.05,0.64,107,1646,Correct
4F4K_incongruent,44,215,1,115,39.22,52.84,0.04,0.83,115,1367,Incorrect
4F4K_incongruent,44,216,1,107,54.82,28.8,0.06,0.45,107,6306,Correct
4F4K_incongruent,44,217,2,108,40.01,67.39,0.04,1.06,108,2991,Correct
4F4K_incongruent,44,218,2,108,59.49,71.55,0.07,1.12,108,989,Incorrect
4F4K_incongruent,44,219,1,115,52.03,69.56,0.06,1.09,115,1441,Correct
4F4K_incongruent,44,220,1,107,49.31,28.68,0.06,0.45,107,1080,Correct
4F4K_incongruent,44,221,1,107,35.07,13.34,0.04,0.21,115,1483,Incorrect
4F4K_incongruent,44,222,1,107,73.77,52.87,0.08,0.83,107,1087,Correct
4F4K_incongruent,44,223,1,107,55.69,45.3,0.06,0.71,107,1054,Correct
4F4K_incongruent,44,224,1,107,54.69,44.49,0.06,0.7,107,976,Correct
4F4K_incongruent,44,225,2,108,35.6,64.91,0.04,1.02,97,1684,Incorrect
4F4K_incongruent,44,226,2,108,37.96,50.51,0.04,0.79,108,780,Correct
4F4K_incongruent,44,227,1,115,57.59,74.87,0.06,1.18,107,7077,Incorrect
4F4K_incongruent,44,228,2,97,58.5,42.93,0.07,0.67,97,2015,Correct
4F4K_incongruent,44,229,2,108,27.63,59.51,0.03,0.93,108,946,Correct
4F4K_incongruent,44,230,2,97,34.16,23.25,0.04,0.37,108,2022,Incorrect
4F4K_incongruent,44,231,2,97,39.27,23.89,0.04,0.38,97,682,Correct
4F4K_incongruent,44,232,1,107,61.4,47.6,0.07,0.75,115,1613,Incorrect
4F4K_incongruent,44,233,2,97,78.05,61.05,0.09,0.96,97,2160,Incorrect
4F4K_incongruent,44,234,2,108,38.21,46.46,0.04,0.73,108,1289,Correct
4F4K_incongruent,44,235,1,115,29.01,43.34,0.03,0.68,115,1826,Correct
4F4K_incongruent,44,236,1,115,45.8,55.74,0.05,0.88,115,1267,Correct
4F4K_incongruent,44,237,1,107,72.29,54.9,0.08,0.86,107,987,Correct
4F4K_incongruent,44,238,2,97,45.63,33.7,0.05,0.53,97,3823,Incorrect
4F4K_incongruent,44,239,1,107,71.1,38.77,0.08,0.61,115,2239,Incorrect
4F4K_incongruent,44,240,1,107,72.94,62.83,0.08,0.99,107,1369,Correct
4F4K_incongruent,44,241,2,97,76.53,57.18,0.09,0.9,97,667,Correct
4F4K_incongruent,44,242,2,108,69.5,84.38,0.08,1.33,97,1202,Incorrect
4F4K_incongruent,44,243,1,115,54.13,68.0,0.06,1.07,115,1434,Correct
4F4K_incongruent,44,244,1,107,65.49,35.43,0.07,0.56,107,1400,Correct
4F4K_incongruent,44,245,2,108,50.14,77.27,0.06,1.21,108,1258,Correct
4F4K_incongruent,44,246,2,97,70.33,55.66,0.08,0.87,97,1535,Correct
4F4K_incongruent,44,247,2,108,35.82,63.97,0.04,1.0,108,1096,Correct
4F4K_incongruent,44,248,1,115,35.46,54.56,0.04,0.86,115,2626,Correct
4F4K_incongruent,44,249,1,115,44.66,63.97,0.05,1.0,115,6201,Correct
4F4K_incongruent,44,250,1,107,48.59,26.14,0.05,0.41,107,1891,Correct
4F4K_incongruent,44,251,2,97,40.3,19.22,0.05,0.3,108,881,Incorrect
4F4K_incongruent,44,252,1,115,17.52,42.38,0.02,0.67,115,1423,Correct
4F4K_incongruent,44,253,1,115,24.72,40.59,0.03,0.64,115,1459,Correct
4F4K_incongruent,44,254,2,108,34.38,56.6,0.04,0.89,108,3489,Correct
4F4K_incongruent,44,255,2,97,46.69,34.3,0.05,0.54,97,1147,Correct
4F4K_incongruent,44,256,1,115,19.84,49.34,0.02,0.78,115,1483,Correct
4F4K_incongruent,44,257,1,115,41.33,74.12,0.05,1.16,107,2781,Incorrect
4F4K_incongruent,44,258,1,115,30.63,47.0,0.03,0.74,115,899,Correct
4F4K_incongruent,44,259,1,107,64.03,36.1,0.07,0.57,107,3858,Correct
4F4K_incongruent,44,260,2,108,12.82,34.13,0.01,0.54,108,1969,Correct
4F4K_incongruent,44,261,2,97,62.82,30.78,0.07,0.48,97,955,Correct
4F4K_incongruent,44,262,1,115,28.59,56.93,0.03,0.89,115,8709,Correct
4F4K_incongruent,44,263,2,97,44.06,17.59,0.05,0.28,97,945,Correct
4F4K_incongruent,44,264,1,107,56.85,32.52,0.06,0.51,115,1863,Incorrect
4F4K_incongruent,44,265,1,115,39.98,63.56,0.04,1.0,107,1063,Incorrect
4F4K_incongruent,44,266,1,107,56.63,43.03,0.06,0.68,115,833,Incorrect
4F4K_incongruent,44,267,2,97,72.54,47.0,0.08,0.74,97,922,Correct
4F4K_incongruent,44,268,2,97,32.71,12.65,0.04,0.2,108,916,Incorrect
4F4K_incongruent,44,269,2,97,70.75,44.96,0.08,0.71,97,686,Correct
4F4K_incongruent,44,270,1,107,85.36,56.21,0.1,0.88,107,1422,Correct
4F4K_incongruent,44,271,1,107,34.0,14.96,0.04,0.24,115,8089,Incorrect
4F4K_incongruent,44,272,2,97,62.82,53.21,0.07,0.84,97,994,Correct
4F4K_incongruent,44,273,1,107,35.87,24.24,0.04,0.38,107,1345,Correct
4F4K_incongruent,44,274,1,107,47.66,35.93,0.05,0.56,107,2220,Correct
4F4K_incongruent,44,275,1,107,76.09,44.08,0.09,0.69,115,1134,Incorrect
4F4K_incongruent,44,276,2,97,77.9,55.8,0.09,0.88,97,798,Correct
4F4K_incongruent,44,277,2,97,58.63,30.11,0.07,0.47,97,813,Correct
4F4K_incongruent,44,278,2,97,63.61,43.7,0.07,0.69,97,1249,Correct
4F4K_incongruent,44,279,2,108,54.75,76.36,0.06,1.2,108,1347,Correct
4F4K_incongruent,44,280,2,97,66.62,49.45,0.07,0.78,97,688,Correct
4F4K_incongruent,44,281,2,108,52.99,75.97,0.06,1.19,108,1547,Correct
4F4K_incongruent,44,282,2,108,42.43,61.31,0.05,0.96,108,747,Correct
4F4K_incongruent,44,283,1,115,63.63,77.58,0.07,1.22,115,3099,Incorrect
4F4K_incongruent,44,284,2,97,47.84,21.08,0.05,0.33,97,4811,Correct
4F4K_incongruent,44,285,2,97,34.88,16.42,0.04,0.26,97,1659,Correct
4F4K_incongruent,44,286,2,108,39.9,55.71,0.04,0.88,108,1658,Correct
4F4K_incongruent,44,287,1,115,22.31,34.86,0.02,0.55,115,1724,Correct
4F4K_incongruent,44,288,2,108,63.87,87.57,0.07,1.38,108,988,Incorrect
4F4K_incongruent,44,289,1,115,56.91,83.97,0.06,1.32,115,668,Correct
4F4K_incongruent,44,290,2,97,34.84,22.25,0.04,0.35,97,1019,Correct
4F4K_incongruent,44,291,1,107,40.64,18.84,0.05,0.3,107,1954,Incorrect
4F4K_incongruent,44,292,2,97,58.68,34.97,0.07,0.55,97,464,Correct
4F4K_incongruent,44,293,2,108,47.96,76.94,0.05,1.21,108,2339,Correct
4F4K_incongruent,44,294,1,107,87.14,67.82,0.1,1.07,107,7674,Correct
4F4K_incongruent,44,295,2,108,37.14,47.86,0.04,0.75,108,4494,Correct
4F4K_incongruent,44,296,1,107,84.06,62.77,0.09,0.99,107,1408,Correct
4F4K_incongruent,44,297,2,97,68.79,40.38,0.08,0.63,97,1138,Correct
4F4K_incongruent,44,298,1,107,63.01,38.01,0.07,0.6,107,1674,Correct
4F4K_incongruent,44,299,2,97,72.95,57.21,0.08,0.9,97,1950,Correct
4F4K_incongruent,44,300,1,107,57.27,29.05,0.06,0.46,107,7266,Correct
4F4K_incongruent,44,301,1,115,23.47,42.97,0.03,0.67,115,4852,Correct
4F4K_incongruent,44,302,1,107,74.97,45.0,0.08,0.71,107,8536,Correct
4F4K_incongruent,44,303,2,97,84.19,64.0,0.09,1.01,97,629,Correct
4F4K_incongruent,44,304,2,97,76.0,56.73,0.09,0.89,97,768,Correct
4F4K_incongruent,44,305,2,108,50.48,64.1,0.06,1.01,97,848,Incorrect
4F4K_incongruent,44,306,2,97,75.55,51.3,0.08,0.81,97,767,Correct
4F4K_incongruent,44,307,1,107,69.68,54.7,0.08,0.86,107,997,Correct
4F4K_incongruent,44,308,1,107,80.46,64.97,0.09,1.02,107,1474,Correct
4F4K_incongruent,44,309,1,107,81.02,60.31,0.09,0.95,107,1131,Correct
4F4K_incongruent,44,310,2,108,15.23,36.33,0.02,0.57,108,1140,Correct
4F4K_incongruent,44,311,2,97,62.83,51.67,0.07,0.81,97,788,Correct
4F4K_incongruent,44,312,2,108,21.0,34.35,0.02,0.54,108,6099,Correct
4F4K_incongruent,44,313,1,107,53.08,32.06,0.06,0.5,107,4322,Correct
4F4K_incongruent,44,314,2,108,60.35,74.07,0.07,1.16,108,2613,Correct
4F4K_incongruent,44,315,1,115,30.36,54.18,0.03,0.85,115,4256,Correct
4F4K_incongruent,44,316,2,97,69.64,42.14,0.08,0.66,97,585,Correct
4F4K_incongruent,44,317,2,108,39.71,51.93,0.04,0.82,97,1609,Incorrect
4F4K_incongruent,44,318,1,107,57.47,24.98,0.06,0.39,107,1567,Correct
4F4K_incongruent,44,319,1,115,46.49,72.64,0.05,1.14,115,690,Correct
4F4K_incongruent,44,320,2,108,26.02,50.51,0.03,0.79,108,5579,Correct
4F4K_incongruent,44,321,2,108,44.92,57.57,0.05,0.9,108,1447,Correct
4F4K_incongruent,44,322,2,108,31.93,63.18,0.04,0.99,108,1325,Correct
4F4K_incongruent,44,323,1,107,47.74,38.6,0.05,0.61,107,1498,Correct
4F4K_incongruent,44,324,1,115,34.01,54.69,0.04,0.86,107,916,Incorrect
4F4K_incongruent,44,325,2,108,55.82,75.8,0.06,1.19,108,2685,Correct
4F4K_incongruent,44,326,2,108,48.37,66.41,0.05,1.04,108,2205,Correct
4F4K_incongruent,44,327,2,97,74.75,51.34,0.08,0.81,97,2543,Correct
4F4K_incongruent,44,328,2,108,66.54,85.68,0.07,1.35,108,1012,Correct
4F4K_incongruent,44,329,1,107,45.44,21.19,0.05,0.33,107,4363,Correct
4F4K_incongruent,44,330,2,97,75.37,53.38,0.08,0.84,97,2012,Correct
4F4K_incongruent,44,331,2,97,87.38,68.52,0.1,1.08,108,1295,Incorrect
4F4K_incongruent,44,332,1,115,48.4,61.53,0.05,0.97,107,1740,Incorrect
4F4K_incongruent,44,333,1,107,53.96,42.36,0.06,0.67,107,1521,Correct
4F4K_incongruent,44,334,1,115,39.64,62.9,0.04,0.99,107,1145,Incorrect
4F4K_incongruent,44,335,2,108,48.95,61.5,0.05,0.97,97,1597,Incorrect
4F4K_incongruent,44,336,1,107,50.08,41.27,0.06,0.65,107,3516,Correct
4F4K_incongruent,44,337,1,107,36.93,15.27,0.04,0.24,107,4921,Correct
4F4K_incongruent,44,338,2,108,52.77,62.48,0.06,0.98,108,4391,Correct
4F4K_incongruent,44,339,2,108,51.06,70.51,0.06,1.11,108,973,Correct
4F4K_incongruent,44,340,1,107,37.88,22.27,0.04,0.35,107,1961,Correct
4F4K_incongruent,44,341,2,108,30.89,49.9,0.03,0.78,97,1942,Incorrect
4F4K_incongruent,44,342,1,115,54.97,78.95,0.06,1.24,115,6553,Correct
4F4K_incongruent,44,343,1,115,41.21,59.69,0.05,0.94,115,2524,Correct
4F4K_incongruent,44,344,1,115,62.27,87.76,0.07,1.38,115,1145,Correct
4F4K_incongruent,44,345,2,108,35.37,57.85,0.04,0.91,97,1865,Incorrect
4F4K_incongruent,44,346,2,97,65.98,40.62,0.07,0.64,97,2230,Correct
4F4K_incongruent,44,347,1,115,39.56,53.99,0.04,0.85,107,10890,Incorrect
4F4K_incongruent,44,348,1,107,58.89,47.42,0.07,0.74,115,6858,Incorrect
4F4K_incongruent,44,349,1,107,53.45,44.76,0.06,0.7,107,3319,Correct
4F4K_incongruent,44,350,2,97,38.46,16.72,0.04,0.26,97,6919,Correct
4F4K_incongruent,44,351,2,97,39.33,20.39,0.04,0.32,97,713,Correct
4F4K_incongruent,44,352,2,97,48.87,22.57,0.05,0.35,97,2116,Correct
4F4K_incongruent,44,353,1,115,37.04,61.28,0.04,0.96,107,1136,Incorrect
4F4K_incongruent,44,354,2,108,54.6,73.81,0.06,1.16,97,1848,Incorrect
4F4K_incongruent,44,355,1,115,44.2,76.71,0.05,1.21,115,4406,Incorrect
4F4K_incongruent,44,356,2,97,35.68,19.86,0.04,0.31,97,1889,Correct
4F4K_incongruent,44,357,1,107,60.61,40.67,0.07,0.64,107,1592,Correct
4F4K_incongruent,44,358,2,97,56.87,43.24,0.06,0.68,97,937,Correct
4F4K_incongruent,44,359,1,107,72.71,55.81,0.08,0.88,107,2212,Correct
4F4K_incongruent,44,360,1,107,75.98,45.91,0.09,0.72,107,1209,Correct
4F4K_incongruent,44,361,2,97,81.3,57.0,0.09,0.9,97,903,Correct
4F4K_incongruent,44,362,2,108,25.67,57.34,0.03,0.9,108,1490,Correct
4F4K_incongruent,44,363,1,115,54.2,65.7,0.06,1.03,115,5005,Correct
4F4K_incongruent,44,364,2,97,80.56,67.55,0.09,1.06,97,1553,Correct
4F4K_incongruent,44,365,2,97,50.45,38.44,0.06,0.6,97,850,Correct
4F4K_incongruent,44,366,1,115,39.42,57.03,0.04,0.9,107,1526,Incorrect
4F4K_incongruent,44,367,1,115,54.27,66.55,0.06,1.05,115,1126,Correct
4F4K_incongruent,44,368,1,115,33.56,43.34,0.04,0.68,115,2013,Correct
4F4K_incongruent,44,369,1,115,57.61,69.16,0.06,1.09,115,1116,Correct
4F4K_incongruent,44,370,1,115,20.56,35.68,0.02,0.56,115,3421,Correct
4F4K_incongruent,44,371,1,115,32.62,47.13,0.04,0.74,115,726,Correct
4F4K_incongruent,44,372,1,115,60.71,80.54,0.07,1.27,115,1372,Incorrect
4F4K_incongruent,44,373,1,115,46.21,57.59,0.05,0.9,107,2254,Incorrect
4F4K_incongruent,44,374,2,108,51.32,65.23,0.06,1.02,97,880,Incorrect
4F4K_incongruent,44,375,2,108,58.31,68.47,0.07,1.08,108,2183,Correct
4F4K_incongruent,44,376,2,97,52.73,26.56,0.06,0.42,97,1677,Correct
4F4K_incongruent,44,377,2,108,25.42,48.79,0.03,0.77,108,1095,Correct
4F4K_incongruent,44,378,2,97,56.68,49.93,0.06,0.78,97,1217,Correct
4F4K_incongruent,44,379,2,97,88.94,68.48,0.1,1.08,97,2265,Incorrect
4F4K_incongruent,44,380,2,108,37.19,53.03,0.04,0.83,108,781,Incorrect
4F4K_incongruent,44,381,1,115,63.2,82.78,0.07,1.3,115,3450,Incorrect
4F4K_incongruent,44,382,2,108,60.5,72.16,0.07,1.13,108,781,Incorrect
4F4K_incongruent,44,383,1,115,32.92,56.3,0.04,0.88,115,4476,Correct
4F4K_incongruent,44,384,2,97,44.95,20.34,0.05,0.32,97,1036,Incorrect
4F4K_incongruent,44,385,2,97,71.64,60.04,0.08,0.94,97,904,Correct
4F4K_incongruent,44,386,2,97,37.97,27.5,0.04,0.43,97,2338,Incorrect
4F4K_incongruent,44,387,2,108,23.43,44.56,0.03,0.7,108,2091,Correct
4F4K_incongruent,44,388,1,115,44.52,58.84,0.05,0.92,115,9841,Correct
4F4K_incongruent,44,389,1,107,66.07,35.26,0.07,0.55,107,4501,Correct
4F4K_incongruent,44,390,2,97,44.55,30.43,0.05,0.48,97,4447,Correct
4F4K_incongruent,44,391,2,97,57.66,35.11,0.06,0.55,97,855,Correct
4F4K_incongruent,44,392,2,97,70.94,55.27,0.08,0.87,97,2431,Incorrect
4F4K_incongruent,44,393,2,108,51.13,65.23,0.06,1.02,108,1279,Incorrect
4F4K_incongruent,44,394,2,108,43.26,50.23,0.05,0.79,108,1402,Correct
4F4K_incongruent,44,395,1,115,24.09,51.95,0.03,0.82,115,1439,Incorrect
4F4K_incongruent,44,396,1,107,68.9,43.15,0.08,0.68,107,1948,Correct
4F4K_incongruent,44,397,1,107,84.37,66.53,0.09,1.05,107,1780,Correct
4F4K_incongruent,44,398,2,97,66.01,35.0,0.07,0.55,97,1659,Correct
