condition,subject,trial,sub_task,cat,x,y,xt,yt,resp,rt,fb
4F4K_congruent,167,0,1,115,36.4,55.0,0.04,0.86,115,1348,Correct
4F4K_congruent,167,1,2,97,36.78,57.27,0.04,0.9,108,1154,Incorrect
4F4K_congruent,167,2,1,115,46.69,78.17,0.05,1.23,115,600,Correct
4F4K_congruent,167,3,1,115,53.15,76.83,0.06,1.21,107,1039,Incorrect
4F4K_congruent,167,4,1,115,23.56,53.81,0.03,0.85,107,1231,Incorrect
4F4K_congruent,167,5,2,97,27.68,44.45,0.03,0.7,97,667,Correct
4F4K_congruent,167,6,2,108,76.34,62.92,0.09,0.99,97,765,Incorrect
4F4K_congruent,167,7,2,97,21.14,52.74,0.02,0.83,97,1555,Correct
4F4K_congruent,167,8,2,108,78.99,67.0,0.09,1.05,108,1238,Correct
4F4K_congruent,167,9,1,107,76.14,49.93,0.09,0.78,107,1360,Correct
4F4K_congruent,167,10,1,107,47.1,17.34,0.05,0.27,115,986,Incorrect
4F4K_congruent,167,11,2,97,58.42,81.99,0.07,1.29,97,1241,Correct
4F4K_congruent,167,12,1,107,67.19,41.5,0.08,0.65,115,855,Incorrect
4F4K_congruent,167,13,2,97,22.4,54.7,0.03,0.86,108,1121,Incorrect
4F4K_congruent,167,14,1,115,42.6,49.41,0.05,0.78,115,1201,Correct
4F4K_congruent,167,15,2,97,46.12,55.6,0.05,0.87,97,967,Correct
4F4K_congruent,167,16,1,107,32.59,14.25,0.04,0.22,107,692,Correct
4F4K_congruent,167,17,2,108,83.23,63.91,0.09,1.0,97,1537,Incorrect
4F4K_congruent,167,18,1,107,83.24,65.71,0.09,1.03,115,1290,Incorrect
4F4K_congruent,167,19,1,107,65.07,55.56,0.07,0.87,107,1241,Correct
4F4K_congruent,167,20,2,97,63.21,86.16,0.07,1.35,97,976,Correct
4F4K_congruent,167,21,1,115,17.69,39.14,0.02,0.61,107,1122,Incorrect
4F4K_congruent,167,22,1,107,65.59,44.28,0.07,0.7,115,1188,Incorrect
4F4K_congruent,167,23,2,97,34.53,64.54,0.04,1.01,97,1499,Correct
4F4K_congruent,167,24,1,115,34.54,51.58,0.04,0.81,107,870,Incorrect
4F4K_congruent,167,25,2,97,22.7,42.51,0.03,0.67,97,946,Correct
4F4K_congruent,167,26,2,108,72.27,58.54,0.08,0.92,97,3976,Incorrect
4F4K_congruent,167,27,2,97,41.58,53.7,0.05,0.84,108,913,Incorrect
4F4K_congruent,167,28,1,115,51.11,60.19,0.06,0.95,115,722,Correct
4F4K_congruent,167,29,2,108,34.73,17.22,0.04,0.27,108,1131,Correct
4F4K_congruent,167,30,2,108,32.56,20.36,0.04,0.32,108,894,Correct
4F4K_congruent,167,31,1,107,38.03,24.55,0.04,0.39,115,1369,Incorrect
4F4K_congruent,167,32,1,115,14.26,39.56,0.02,0.62,107,1397,Incorrect
4F4K_congruent,167,33,2,108,31.4,11.33,0.04,0.18,97,940,Incorrect
4F4K_congruent,167,34,2,108,56.44,41.74,0.06,0.66,108,2217,Correct
4F4K_congruent,167,35,1,107,68.65,58.18,0.08,0.91,115,2142,Incorrect
4F4K_congruent,167,36,2,97,55.48,68.43,0.06,1.07,108,1626,Incorrect
4F4K_congruent,167,37,2,108,40.6,16.96,0.05,0.27,97,1498,Incorrect
4F4K_congruent,167,38,1,115,42.66,65.18,0.05,1.02,115,1230,Correct
4F4K_congruent,167,39,1,115,40.47,54.27,0.05,0.85,107,1117,Incorrect
4F4K_congruent,167,40,1,115,13.99,31.47,0.02,0.49,107,1783,Incorrect
4F4K_congruent,167,41,2,108,36.69,14.9,0.04,0.23,108,1483,Correct
4F4K_congruent,167,42,2,97,22.23,50.34,0.02,0.79,108,1644,Incorrect
4F4K_congruent,167,43,1,107,42.94,17.74,0.05,0.28,115,1165,Incorrect
4F4K_congruent,167,44,2,97,38.03,67.68,0.04,1.06,108,1264,Incorrect
4F4K_congruent,167,45,1,107,83.73,68.59,0.09,1.08,115,1058,Incorrect
4F4K_congruent,167,46,1,115,16.68,36.14,0.02,0.57,107,1000,Incorrect
4F4K_congruent,167,47,1,107,70.52,53.3,0.08,0.84,115,1495,Incorrect
4F4K_congruent,167,48,2,108,63.88,55.27,0.07,0.87,108,1202,Correct
4F4K_congruent,167,49,1,115,38.46,64.89,0.04,1.02,107,1778,Incorrect
4F4K_congruent,167,50,1,115,38.76,67.47,0.04,1.06,115,739,Correct
4F4K_congruent,167,51,1,115,47.31,73.8,0.05,1.16,115,812,Correct
4F4K_congruent,167,52,2,97,34.45,53.02,0.04,0.83,108,1646,Incorrect
4F4K_congruent,167,53,2,108,61.71,38.55,0.07,0.61,97,778,Incorrect
4F4K_congruent,167,54,1,115,30.79,39.9,0.03,0.63,115,1374,Correct
4F4K_congruent,167,55,1,107,55.45,28.98,0.06,0.46,115,993,Incorrect
4F4K_congruent,167,56,2,108,47.1,23.81,0.05,0.37,108,924,Correct
4F4K_congruent,167,57,1,107,76.29,46.65,0.09,0.73,107,2081,Correct
4F4K_congruent,167,58,1,107,70.13,48.59,0.08,0.76,107,1869,Correct
4F4K_congruent,167,59,2,97,43.0,49.91,0.05,0.78,97,1071,Correct
4F4K_congruent,167,60,2,97,50.53,60.33,0.06,0.95,97,953,Correct
4F4K_congruent,167,61,2,97,58.27,72.62,0.07,1.14,97,1227,Correct
4F4K_congruent,167,62,1,107,76.36,58.05,0.09,0.91,107,1511,Correct
4F4K_congruent,167,63,2,108,38.97,22.24,0.04,0.35,108,940,Correct
4F4K_congruent,167,64,2,108,83.62,61.95,0.09,0.97,97,754,Incorrect
4F4K_congruent,167,65,1,107,61.87,45.46,0.07,0.71,107,1594,Correct
4F4K_congruent,167,66,1,115,54.52,78.52,0.06,1.23,115,583,Correct
4F4K_congruent,167,67,1,115,27.42,38.6,0.03,0.61,115,840,Correct
4F4K_congruent,167,68,2,97,64.9,81.09,0.07,1.27,108,841,Incorrect
4F4K_congruent,167,69,2,97,14.52,40.76,0.02,0.64,97,1851,Correct
4F4K_congruent,167,70,2,108,52.11,36.61,0.06,0.58,108,779,Correct
4F4K_congruent,167,71,1,107,81.17,56.96,0.09,0.89,107,1469,Correct
4F4K_congruent,167,72,1,107,56.92,27.63,0.06,0.43,107,1974,Correct
4F4K_congruent,167,73,2,108,73.22,42.87,0.08,0.67,108,3118,Correct
4F4K_congruent,167,74,1,107,86.25,58.68,0.1,0.92,107,1339,Correct
4F4K_congruent,167,75,1,107,57.48,41.04,0.06,0.64,115,1629,Incorrect
4F4K_congruent,167,76,2,108,54.85,26.22,0.06,0.41,97,1919,Incorrect
4F4K_congruent,167,77,2,97,61.7,76.14,0.07,1.2,108,457,Incorrect
4F4K_congruent,167,78,2,97,65.86,86.37,0.07,1.36,97,1144,Correct
4F4K_congruent,167,79,2,108,54.62,46.48,0.06,0.73,108,1361,Correct
4F4K_congruent,167,80,1,115,20.18,48.86,0.02,0.77,115,896,Correct
4F4K_congruent,167,81,1,107,56.19,44.73,0.06,0.7,107,896,Correct
4F4K_congruent,167,82,2,108,51.44,38.65,0.06,0.61,108,1233,Correct
4F4K_congruent,167,83,2,108,58.98,51.45,0.07,0.81,108,759,Correct
4F4K_congruent,167,84,1,115,67.26,88.16,0.08,1.38,115,1730,Correct
4F4K_congruent,167,85,1,115,23.43,45.68,0.03,0.72,97,1139,Correct
4F4K_congruent,167,86,1,107,34.01,17.1,0.04,0.27,107,1193,Correct
4F4K_congruent,167,87,2,97,58.89,84.39,0.07,1.33,108,1095,Incorrect
4F4K_congruent,167,88,1,107,70.21,39.75,0.08,0.62,107,1720,Correct
4F4K_congruent,167,89,1,115,56.76,79.89,0.06,1.25,107,2193,Incorrect
4F4K_congruent,167,90,1,115,22.69,51.35,0.03,0.81,115,941,Correct
4F4K_congruent,167,91,2,97,49.83,71.28,0.06,1.12,108,1512,Incorrect
4F4K_congruent,167,92,1,107,57.78,28.04,0.06,0.44,107,2093,Correct
4F4K_congruent,167,93,1,107,42.34,32.97,0.05,0.52,107,2741,Correct
4F4K_congruent,167,94,2,108,37.24,24.68,0.04,0.39,97,2068,Incorrect
4F4K_congruent,167,95,2,97,21.06,52.42,0.02,0.82,108,826,Incorrect
4F4K_congruent,167,96,2,97,50.22,80.02,0.06,1.26,97,2361,Correct
4F4K_congruent,167,97,2,108,42.84,24.02,0.05,0.38,108,1151,Correct
4F4K_congruent,167,98,1,115,45.46,70.21,0.05,1.1,115,2739,Correct
4F4K_congruent,167,99,1,107,62.62,48.36,0.07,0.76,107,1008,Correct
4F4K_congruent,167,100,1,107,57.81,38.98,0.06,0.61,107,838,Correct
4F4K_congruent,167,101,1,107,69.69,46.97,0.08,0.74,107,740,Correct
4F4K_congruent,167,102,2,97,41.55,52.33,0.05,0.82,108,1114,Incorrect
4F4K_congruent,167,103,1,115,20.86,52.48,0.02,0.82,115,944,Correct
4F4K_congruent,167,104,1,115,14.4,37.6,0.02,0.59,115,701,Correct
4F4K_congruent,167,105,1,115,18.58,41.51,0.02,0.65,115,678,Correct
4F4K_congruent,167,106,1,107,66.86,49.9,0.07,0.78,107,569,Correct
4F4K_congruent,167,107,1,107,53.66,24.85,0.06,0.39,107,789,Correct
4F4K_congruent,167,108,1,107,68.7,52.77,0.08,0.83,107,708,Correct
4F4K_congruent,167,109,2,97,50.48,70.32,0.06,1.1,97,1307,Correct
4F4K_congruent,167,110,2,108,53.9,31.21,0.06,0.49,108,892,Correct
4F4K_congruent,167,111,2,97,60.24,86.01,0.07,1.35,97,1739,Correct
4F4K_congruent,167,112,1,107,53.69,29.62,0.06,0.47,107,929,Correct
4F4K_congruent,167,113,1,107,59.54,41.04,0.07,0.64,107,902,Correct
4F4K_congruent,167,114,2,108,45.66,35.15,0.05,0.55,108,1049,Correct
4F4K_congruent,167,115,1,107,51.01,30.87,0.06,0.48,107,1169,Correct
4F4K_congruent,167,116,2,108,62.68,38.35,0.07,0.6,108,925,Correct
4F4K_congruent,167,117,2,97,47.34,55.12,0.05,0.87,97,2333,Correct
4F4K_congruent,167,118,1,115,39.29,60.66,0.04,0.95,115,1667,Correct
4F4K_congruent,167,119,2,97,36.35,44.45,0.04,0.7,97,2564,Correct
4F4K_congruent,167,120,1,115,57.42,66.12,0.06,1.04,115,4162,Correct
4F4K_congruent,167,121,2,97,44.62,64.41,0.05,1.01,97,1169,Correct
4F4K_congruent,167,122,2,108,49.73,39.84,0.06,0.63,108,732,Correct
4F4K_congruent,167,123,1,115,34.67,54.94,0.04,0.86,115,1115,Correct
4F4K_congruent,167,124,1,115,59.79,75.21,0.07,1.18,115,1357,Correct
4F4K_congruent,167,125,2,108,41.49,23.38,0.05,0.37,108,956,Correct
4F4K_congruent,167,126,1,107,41.85,20.93,0.05,0.33,107,787,Correct
4F4K_congruent,167,127,2,108,44.88,29.53,0.05,0.46,108,1632,Correct
4F4K_congruent,167,128,2,108,61.11,43.9,0.07,0.69,108,1184,Correct
4F4K_congruent,167,129,2,108,58.46,44.05,0.07,0.69,108,832,Correct
4F4K_congruent,167,130,2,97,25.82,42.93,0.03,0.67,97,2265,Correct
4F4K_congruent,167,131,1,107,66.76,51.15,0.07,0.8,115,2064,Incorrect
4F4K_congruent,167,132,2,97,47.73,59.44,0.05,0.93,97,1620,Correct
4F4K_congruent,167,133,2,97,19.09,40.49,0.02,0.64,97,1462,Correct
4F4K_congruent,167,134,2,97,42.37,65.89,0.05,1.03,97,2183,Correct
4F4K_congruent,167,135,1,115,45.14,54.63,0.05,0.86,115,3422,Correct
4F4K_congruent,167,136,1,115,23.44,38.41,0.03,0.6,115,1525,Correct
4F4K_congruent,167,137,1,107,49.76,32.19,0.06,0.51,107,964,Correct
4F4K_congruent,167,138,2,97,54.77,64.8,0.06,1.02,97,1822,Correct
4F4K_congruent,167,139,1,115,15.55,40.15,0.02,0.63,115,930,Correct
4F4K_congruent,167,140,1,107,81.29,52.36,0.09,0.82,107,1105,Correct
4F4K_congruent,167,141,2,108,60.79,39.14,0.07,0.61,108,920,Correct
4F4K_congruent,167,142,2,97,24.55,50.96,0.03,0.8,97,1044,Correct
4F4K_congruent,167,143,2,97,35.35,54.03,0.04,0.85,97,1650,Correct
4F4K_congruent,167,144,1,107,45.37,31.93,0.05,0.5,107,908,Correct
4F4K_congruent,167,145,2,108,80.56,52.74,0.09,0.83,108,870,Correct
4F4K_congruent,167,146,1,107,53.47,34.02,0.06,0.53,107,1033,Correct
4F4K_congruent,167,147,2,97,37.67,62.37,0.04,0.98,97,1846,Correct
4F4K_congruent,167,148,1,107,70.82,48.74,0.08,0.77,107,845,Correct
4F4K_congruent,167,149,1,115,19.96,50.67,0.02,0.8,115,883,Correct
4F4K_congruent,167,150,2,97,33.53,58.63,0.04,0.92,97,1370,Correct
4F4K_congruent,167,151,2,97,39.68,65.42,0.04,1.03,97,1777,Correct
4F4K_congruent,167,152,2,97,41.23,68.57,0.05,1.08,97,1212,Correct
4F4K_congruent,167,153,2,108,35.42,12.17,0.04,0.19,108,890,Correct
4F4K_congruent,167,154,2,97,27.6,49.53,0.03,0.78,97,1948,Correct
4F4K_congruent,167,155,2,97,51.9,62.92,0.06,0.99,97,1149,Correct
4F4K_congruent,167,156,2,97,13.44,33.79,0.02,0.53,97,1329,Correct
4F4K_congruent,167,157,2,108,49.31,23.1,0.06,0.36,108,1016,Correct
4F4K_congruent,167,158,1,107,77.78,53.41,0.09,0.84,107,1075,Correct
4F4K_congruent,167,159,2,97,15.19,30.34,0.02,0.48,97,1500,Correct
4F4K_congruent,167,160,2,108,53.49,25.3,0.06,0.4,108,722,Correct
4F4K_congruent,167,161,1,107,84.1,59.13,0.09,0.93,107,807,Correct
4F4K_congruent,167,162,2,97,40.38,51.31,0.05,0.81,97,2553,Correct
4F4K_congruent,167,163,2,97,45.38,77.7,0.05,1.22,97,1218,Correct
4F4K_congruent,167,164,2,108,45.42,18.65,0.05,0.29,108,847,Correct
4F4K_congruent,167,165,1,115,11.77,32.63,0.01,0.51,115,877,Correct
4F4K_congruent,167,166,1,107,65.49,34.24,0.07,0.54,107,977,Correct
4F4K_congruent,167,167,2,97,42.97,62.54,0.05,0.98,97,1405,Correct
4F4K_congruent,167,168,1,115,43.77,53.77,0.05,0.84,115,2112,Correct
4F4K_congruent,167,169,2,108,67.6,57.28,0.08,0.9,97,1695,Incorrect
4F4K_congruent,167,170,2,97,20.61,46.14,0.02,0.72,97,1866,Correct
4F4K_congruent,167,171,1,107,48.17,19.48,0.05,0.31,107,897,Correct
4F4K_congruent,167,172,1,115,20.42,47.32,0.02,0.74,115,950,Correct
4F4K_congruent,167,173,1,115,50.35,63.16,0.06,0.99,107,1600,Incorrect
4F4K_congruent,167,174,1,107,54.67,39.12,0.06,0.61,107,1075,Correct
4F4K_congruent,167,175,1,107,43.88,21.2,0.05,0.33,107,1211,Correct
4F4K_congruent,167,176,1,115,55.64,70.38,0.06,1.11,115,942,Correct
4F4K_congruent,167,177,2,108,40.01,12.78,0.04,0.2,108,1202,Correct
4F4K_congruent,167,178,1,115,58.9,81.67,0.07,1.28,115,1147,Correct
4F4K_congruent,167,179,2,108,42.16,13.74,0.05,0.22,108,1007,Correct
4F4K_congruent,167,180,2,97,27.03,42.77,0.03,0.67,97,635,Correct
4F4K_congruent,167,181,2,108,58.22,28.63,0.07,0.45,108,733,Correct
4F4K_congruent,167,182,2,108,58.33,37.18,0.07,0.58,108,690,Correct
4F4K_congruent,167,183,1,107,47.23,23.97,0.05,0.38,107,908,Correct
4F4K_congruent,167,184,2,108,44.53,32.22,0.05,0.51,108,730,Correct
4F4K_congruent,167,185,2,108,49.94,23.24,0.06,0.37,108,776,Correct
4F4K_congruent,167,186,1,107,66.37,45.41,0.07,0.71,115,1217,Incorrect
4F4K_congruent,167,187,2,108,67.68,55.11,0.08,0.87,97,2682,Incorrect
4F4K_congruent,167,188,1,115,45.75,60.51,0.05,0.95,115,1369,Correct
4F4K_congruent,167,189,1,115,31.04,47.33,0.03,0.74,115,884,Correct
4F4K_congruent,167,190,2,97,28.35,45.12,0.03,0.71,97,2156,Correct
4F4K_congruent,167,191,1,115,46.88,60.54,0.05,0.95,115,3823,Correct
4F4K_congruent,167,192,1,107,42.98,25.88,0.05,0.41,107,1132,Correct
4F4K_congruent,167,193,2,108,62.86,30.79,0.07,0.48,108,1016,Correct
4F4K_congruent,167,194,1,107,63.3,51.66,0.07,0.81,107,1596,Correct
4F4K_congruent,167,195,2,108,31.87,10.36,0.04,0.16,108,953,Correct
4F4K_congruent,167,196,1,115,30.46,52.32,0.03,0.82,97,2020,Correct
4F4K_congruent,167,197,1,115,31.21,45.76,0.03,0.72,115,2006,Correct
4F4K_congruent,167,198,1,115,62.38,84.01,0.07,1.32,115,2795,Correct
4F4K_congruent,167,199,2,108,39.91,16.43,0.04,0.26,108,807,Correct
4F4K_congruent,167,200,2,108,63.3,40.75,0.07,0.64,108,1768,Correct
4F4K_congruent,167,201,2,97,40.19,48.04,0.04,0.75,108,2120,Incorrect
4F4K_congruent,167,202,1,115,45.17,56.54,0.05,0.89,115,1730,Correct
4F4K_congruent,167,203,1,115,50.37,64.06,0.06,1.01,115,2707,Correct
4F4K_congruent,167,204,2,97,64.06,82.28,0.07,1.29,97,1416,Correct
4F4K_congruent,167,205,2,108,46.52,18.09,0.05,0.28,108,843,Correct
4F4K_congruent,167,206,1,107,39.77,24.27,0.04,0.38,115,711,Incorrect
4F4K_congruent,167,207,2,108,66.92,45.02,0.07,0.71,108,873,Correct
4F4K_congruent,167,208,1,115,56.64,66.73,0.06,1.05,115,1180,Correct
4F4K_congruent,167,209,1,107,85.82,66.21,0.1,1.04,107,999,Correct
4F4K_congruent,167,210,1,115,34.82,63.36,0.04,1.0,115,1001,Correct
4F4K_congruent,167,211,2,97,34.41,44.9,0.04,0.71,108,1718,Incorrect
4F4K_congruent,167,212,2,108,53.79,36.86,0.06,0.58,108,1091,Correct
4F4K_congruent,167,213,1,107,44.28,19.68,0.05,0.31,107,1360,Correct
4F4K_congruent,167,214,2,97,59.39,85.54,0.07,1.34,97,1032,Correct
4F4K_congruent,167,215,2,97,54.91,66.56,0.06,1.05,108,953,Incorrect
4F4K_congruent,167,216,2,97,38.98,68.07,0.04,1.07,97,708,Correct
4F4K_congruent,167,217,1,107,83.33,63.86,0.09,1.0,107,1003,Correct
4F4K_congruent,167,218,2,108,37.22,20.91,0.04,0.33,108,1289,Correct
4F4K_congruent,167,219,1,107,71.4,47.36,0.08,0.74,107,1676,Correct
4F4K_congruent,167,220,2,108,60.56,30.97,0.07,0.49,108,1347,Correct
4F4K_congruent,167,221,2,108,60.42,29.73,0.07,0.47,108,1081,Correct
4F4K_congruent,167,222,2,97,53.59,80.76,0.06,1.27,97,1240,Correct
4F4K_congruent,167,223,1,115,34.06,45.81,0.04,0.72,107,1981,Incorrect
4F4K_congruent,167,224,1,115,12.37,32.51,0.01,0.51,115,1060,Correct
4F4K_congruent,167,225,1,107,69.43,47.24,0.08,0.74,107,1052,Correct
4F4K_congruent,167,226,2,108,63.74,36.81,0.07,0.58,108,1760,Correct
4F4K_congruent,167,227,2,108,50.33,34.83,0.06,0.55,108,3195,Correct
4F4K_congruent,167,228,2,108,72.05,55.37,0.08,0.87,108,1527,Correct
4F4K_congruent,167,229,1,115,59.22,86.81,0.07,1.36,115,838,Correct
4F4K_congruent,167,230,1,107,68.8,47.75,0.08,0.75,107,1767,Correct
4F4K_congruent,167,231,1,107,33.84,13.74,0.04,0.22,107,1561,Correct
4F4K_congruent,167,232,2,108,60.09,39.57,0.07,0.62,108,834,Correct
4F4K_congruent,167,233,1,115,27.34,52.27,0.03,0.82,115,1668,Correct
4F4K_congruent,167,234,2,97,33.68,57.14,0.04,0.9,97,2257,Correct
4F4K_congruent,167,235,1,115,57.51,78.61,0.06,1.23,115,1258,Correct
4F4K_congruent,167,236,2,108,69.87,58.13,0.08,0.91,108,2477,Correct
4F4K_congruent,167,237,1,115,37.02,59.77,0.04,0.94,115,937,Correct
4F4K_congruent,167,238,2,108,87.17,59.14,0.1,0.93,108,866,Correct
4F4K_congruent,167,239,1,107,83.91,55.88,0.09,0.88,107,1745,Correct
4F4K_congruent,167,240,1,107,53.03,32.33,0.06,0.51,107,875,Correct
4F4K_congruent,167,241,1,115,40.53,49.39,0.05,0.78,115,731,Correct
4F4K_congruent,167,242,1,107,52.35,34.0,0.06,0.53,107,761,Correct
4F4K_congruent,167,243,2,97,69.8,87.53,0.08,1.37,97,887,Correct
4F4K_congruent,167,244,2,97,54.35,79.22,0.06,1.24,97,821,Correct
4F4K_congruent,167,245,2,97,17.44,31.64,0.02,0.5,97,1314,Correct
4F4K_congruent,167,246,1,107,73.98,42.07,0.08,0.66,107,1262,Correct
4F4K_congruent,167,247,1,115,42.92,66.47,0.05,1.04,115,2434,Correct
4F4K_congruent,167,248,1,107,61.84,36.62,0.07,0.58,107,957,Correct
4F4K_congruent,167,249,2,97,64.83,82.94,0.07,1.3,97,1392,Correct
4F4K_congruent,167,250,1,107,65.49,42.67,0.07,0.67,107,1038,Correct
4F4K_congruent,167,251,1,115,48.1,64.03,0.05,1.01,115,1646,Correct
4F4K_congruent,167,252,1,115,39.28,51.01,0.04,0.8,107,1653,Incorrect
4F4K_congruent,167,253,2,97,37.46,46.01,0.04,0.72,97,2034,Correct
4F4K_congruent,167,254,1,115,25.15,51.35,0.03,0.81,115,1265,Correct
4F4K_congruent,167,255,2,108,53.3,40.88,0.06,0.64,108,787,Correct
4F4K_congruent,167,256,2,108,50.45,31.88,0.06,0.5,108,853,Correct
4F4K_congruent,167,257,1,115,38.04,58.29,0.04,0.92,115,1241,Correct
4F4K_congruent,167,258,2,97,56.62,65.12,0.06,1.02,108,1410,Incorrect
4F4K_congruent,167,259,2,97,49.92,71.66,0.06,1.13,97,948,Correct
4F4K_congruent,167,260,1,107,50.46,21.53,0.06,0.34,107,1074,Correct
4F4K_congruent,167,261,1,107,72.48,56.03,0.08,0.88,107,816,Correct
4F4K_congruent,167,262,2,108,82.95,57.78,0.09,0.91,108,853,Correct
4F4K_congruent,167,263,1,115,35.77,56.03,0.04,0.88,115,533,Correct
4F4K_congruent,167,264,2,108,79.27,52.48,0.09,0.82,108,720,Correct
4F4K_congruent,167,265,2,97,55.4,69.24,0.06,1.09,97,931,Correct
4F4K_congruent,167,266,2,108,38.19,16.24,0.04,0.26,108,851,Correct
4F4K_congruent,167,267,2,108,45.34,16.43,0.05,0.26,108,700,Correct
4F4K_congruent,167,268,1,107,79.74,48.73,0.09,0.77,107,824,Correct
4F4K_congruent,167,269,1,107,76.77,58.09,0.09,0.91,107,690,Correct
4F4K_congruent,167,270,1,115,60.63,78.83,0.07,1.24,115,1416,Correct
4F4K_congruent,167,271,1,107,59.85,49.64,0.07,0.78,107,834,Correct
4F4K_congruent,167,272,2,97,19.54,46.87,0.02,0.74,97,1066,Correct
4F4K_congruent,167,273,2,97,51.8,62.96,0.06,0.99,108,971,Incorrect
4F4K_congruent,167,274,2,108,59.95,45.93,0.07,0.72,108,899,Correct
4F4K_congruent,167,275,2,97,63.18,73.07,0.07,1.15,97,856,Correct
4F4K_congruent,167,276,2,108,66.69,53.59,0.07,0.84,108,970,Correct
4F4K_congruent,167,277,1,115,33.99,45.21,0.04,0.71,115,797,Correct
4F4K_congruent,167,278,2,108,77.13,58.24,0.09,0.91,108,1240,Correct
4F4K_congruent,167,279,2,108,34.06,20.5,0.04,0.32,97,792,Incorrect
4F4K_congruent,167,280,2,108,62.81,55.07,0.07,0.86,108,756,Correct
4F4K_congruent,167,281,2,108,55.17,44.84,0.06,0.7,108,796,Correct
4F4K_congruent,167,282,2,97,15.32,36.07,0.02,0.57,97,732,Correct
4F4K_congruent,167,283,1,107,85.02,59.61,0.1,0.94,107,1111,Correct
4F4K_congruent,167,284,1,107,51.09,22.81,0.06,0.36,107,1037,Correct
4F4K_congruent,167,285,1,115,46.73,55.91,0.05,0.88,115,1654,Correct
4F4K_congruent,167,286,2,108,75.75,45.0,0.08,0.71,108,572,Correct
4F4K_congruent,167,287,2,108,69.13,40.76,0.08,0.64,108,1449,Correct
4F4K_congruent,167,288,1,107,86.58,64.75,0.1,1.02,107,1094,Correct
4F4K_congruent,167,289,2,97,53.83,81.16,0.06,1.27,97,981,Correct
4F4K_congruent,167,290,2,108,59.62,36.77,0.07,0.58,108,876,Correct
4F4K_congruent,167,291,2,108,36.46,13.38,0.04,0.21,108,1210,Correct
4F4K_congruent,167,292,2,108,50.07,29.85,0.06,0.47,108,800,Correct
4F4K_congruent,167,293,1,115,63.56,80.06,0.07,1.26,115,1389,Correct
4F4K_congruent,167,294,1,107,61.19,32.42,0.07,0.51,107,998,Correct
4F4K_congruent,167,295,1,107,64.7,39.57,0.07,0.62,107,833,Correct
4F4K_congruent,167,296,1,115,31.87,59.92,0.04,0.94,115,1412,Correct
4F4K_congruent,167,297,2,97,59.86,78.02,0.07,1.23,97,1487,Correct
4F4K_congruent,167,298,1,115,37.29,61.44,0.04,0.97,115,707,Correct
4F4K_congruent,167,299,2,97,38.38,60.64,0.04,0.95,97,1526,Correct
4F4K_congruent,167,300,1,107,51.91,37.74,0.06,0.59,107,766,Correct
4F4K_congruent,167,301,1,115,69.3,87.5,0.08,1.37,115,1148,Correct
4F4K_congruent,167,302,1,107,81.36,58.11,0.09,0.91,107,848,Correct
4F4K_congruent,167,303,1,115,49.8,57.26,0.06,0.9,115,741,Correct
4F4K_congruent,167,304,1,115,45.88,57.21,0.05,0.9,115,1556,Correct
4F4K_congruent,167,305,2,97,49.95,74.7,0.06,1.17,97,827,Correct
4F4K_congruent,167,306,2,97,47.67,65.31,0.05,1.03,97,1322,Correct
4F4K_congruent,167,307,1,107,69.85,50.08,0.08,0.79,107,851,Correct
4F4K_congruent,167,308,1,115,65.26,85.79,0.07,1.35,115,740,Correct
4F4K_congruent,167,309,1,107,76.7,48.1,0.09,0.76,107,680,Correct
4F4K_congruent,167,310,1,107,81.6,59.53,0.09,0.94,107,916,Correct
4F4K_congruent,167,311,1,107,43.12,32.84,0.05,0.52,107,835,Correct
4F4K_congruent,167,312,2,108,85.99,67.3,0.1,1.06,97,1267,Incorrect
4F4K_congruent,167,313,1,115,54.84,82.54,0.06,1.3,115,1168,Correct
4F4K_congruent,167,314,1,107,84.97,60.15,0.1,0.94,107,1234,Correct
4F4K_congruent,167,315,2,108,68.1,47.71,0.08,0.75,108,1394,Correct
4F4K_congruent,167,316,1,107,73.45,60.23,0.08,0.95,107,1523,Correct
4F4K_congruent,167,317,2,97,33.8,49.1,0.04,0.77,97,2517,Correct
4F4K_congruent,167,318,1,115,12.96,38.8,0.01,0.61,115,1080,Correct
4F4K_congruent,167,319,2,108,54.6,35.75,0.06,0.56,108,1137,Correct
4F4K_congruent,167,320,1,115,17.58,31.87,0.02,0.5,115,992,Correct
4F4K_congruent,167,321,1,115,38.23,46.91,0.04,0.74,107,1086,Incorrect
4F4K_congruent,167,322,1,107,75.43,45.38,0.08,0.71,107,705,Correct
4F4K_congruent,167,323,1,115,49.39,70.88,0.06,1.11,115,817,Correct
4F4K_congruent,167,324,1,107,53.2,41.25,0.06,0.65,107,1034,Correct
4F4K_congruent,167,325,1,115,59.75,76.92,0.07,1.21,115,847,Correct
4F4K_congruent,167,326,1,115,34.32,67.2,0.04,1.06,115,1601,Correct
4F4K_congruent,167,327,1,107,54.93,46.59,0.06,0.73,107,1052,Correct
4F4K_congruent,167,328,2,97,51.31,73.64,0.06,1.16,97,1267,Correct
4F4K_congruent,167,329,2,97,48.92,67.88,0.05,1.07,97,1797,Correct
4F4K_congruent,167,330,1,115,62.69,84.01,0.07,1.32,115,1601,Correct
4F4K_congruent,167,331,1,107,42.12,26.79,0.05,0.42,107,1599,Correct
4F4K_congruent,167,332,2,97,26.86,55.55,0.03,0.87,97,1767,Correct
4F4K_congruent,167,333,1,107,84.68,59.04,0.09,0.93,107,1169,Correct
4F4K_congruent,167,334,2,97,21.29,44.85,0.02,0.7,97,1902,Correct
4F4K_congruent,167,335,2,108,78.36,62.57,0.09,0.98,108,913,Correct
4F4K_congruent,167,336,1,115,27.06,55.37,0.03,0.87,115,864,Correct
4F4K_congruent,167,337,2,97,46.44,65.32,0.05,1.03,97,1662,Correct
4F4K_congruent,167,338,2,108,89.73,68.16,0.1,1.07,108,1010,Correct
4F4K_congruent,167,339,2,108,81.0,52.35,0.09,0.82,108,826,Correct
4F4K_congruent,167,340,2,108,84.22,64.14,0.09,1.01,97,2335,Incorrect
4F4K_congruent,167,341,1,115,59.76,74.61,0.07,1.17,115,959,Correct
4F4K_congruent,167,342,1,107,46.18,28.81,0.05,0.45,107,1969,Correct
4F4K_congruent,167,343,1,107,72.49,44.47,0.08,0.7,107,909,Correct
4F4K_congruent,167,344,1,115,31.55,62.39,0.04,0.98,115,1005,Correct
4F4K_congruent,167,345,2,97,28.78,48.61,0.03,0.76,97,860,Correct
4F4K_congruent,167,346,1,115,25.17,44.7,0.03,0.7,115,1022,Correct
4F4K_congruent,167,347,2,108,54.76,28.13,0.06,0.44,108,847,Correct
4F4K_congruent,167,348,1,107,71.16,40.24,0.08,0.63,107,723,Correct
4F4K_congruent,167,349,1,107,58.03,26.09,0.06,0.41,107,864,Correct
4F4K_congruent,167,350,2,97,60.09,72.95,0.07,1.15,97,1228,Correct
4F4K_congruent,167,351,2,108,71.22,40.48,0.08,0.64,97,2387,Incorrect
4F4K_congruent,167,352,1,115,64.67,87.84,0.07,1.38,115,1045,Correct
4F4K_congruent,167,353,1,115,41.64,50.46,0.05,0.79,115,968,Correct
4F4K_congruent,167,354,2,97,56.23,73.22,0.06,1.15,97,1074,Correct
4F4K_congruent,167,355,2,97,67.38,89.36,0.08,1.4,97,981,Correct
4F4K_congruent,167,356,1,115,62.92,83.46,0.07,1.31,115,1503,Correct
4F4K_congruent,167,357,1,115,24.67,42.69,0.03,0.67,115,781,Correct
4F4K_congruent,167,358,2,97,45.21,75.47,0.05,1.19,97,1175,Correct
4F4K_congruent,167,359,1,107,86.26,69.22,0.1,1.09,107,1147,Correct
4F4K_congruent,167,360,1,115,37.64,66.12,0.04,1.04,115,842,Correct
4F4K_congruent,167,361,2,108,65.4,46.03,0.07,0.72,108,885,Correct
4F4K_congruent,167,362,2,97,51.58,62.87,0.06,0.99,97,790,Correct
4F4K_congruent,167,363,1,115,16.41,31.23,0.02,0.49,115,646,Correct
4F4K_congruent,167,364,2,108,65.02,44.04,0.07,0.69,108,803,Correct
4F4K_congruent,167,365,1,115,59.72,83.11,0.07,1.31,115,969,Correct
4F4K_congruent,167,366,1,115,52.69,67.25,0.06,1.06,115,784,Correct
4F4K_congruent,167,367,1,107,45.67,35.06,0.05,0.55,107,925,Correct
4F4K_congruent,167,368,2,108,77.29,49.91,0.09,0.78,108,858,Correct
4F4K_congruent,167,369,2,108,56.37,43.82,0.06,0.69,108,727,Correct
4F4K_congruent,167,370,2,97,55.76,83.94,0.06,1.32,97,774,Correct
4F4K_congruent,167,371,1,115,63.71,85.54,0.07,1.34,115,678,Correct
4F4K_congruent,167,372,2,97,61.66,74.8,0.07,1.18,97,724,Correct
4F4K_congruent,167,373,2,108,38.69,26.23,0.04,0.41,108,1885,Correct
4F4K_congruent,167,374,1,107,57.61,37.34,0.06,0.59,107,2005,Correct
4F4K_congruent,167,375,1,107,47.53,25.91,0.05,0.41,107,1472,Correct
4F4K_congruent,167,376,2,97,54.47,70.11,0.06,1.1,97,1261,Correct
4F4K_congruent,167,377,1,107,73.13,52.34,0.08,0.82,107,800,Correct
4F4K_congruent,167,378,2,97,14.37,42.46,0.02,0.67,97,746,Correct
4F4K_congruent,167,379,1,107,71.68,49.94,0.08,0.78,107,1391,Correct
4F4K_congruent,167,380,1,107,59.97,50.81,0.07,0.8,107,1982,Correct
4F4K_congruent,167,381,1,115,36.61,58.21,0.04,0.91,115,774,Correct
4F4K_congruent,167,382,1,115,20.33,46.54,0.02,0.73,115,775,Correct
4F4K_congruent,167,383,2,108,87.13,63.04,0.1,0.99,108,693,Correct
4F4K_congruent,167,384,1,107,48.88,29.19,0.05,0.46,107,1641,Correct
4F4K_congruent,167,385,1,115,51.8,79.65,0.06,1.25,115,918,Correct
4F4K_congruent,167,386,1,107,79.27,58.1,0.09,0.91,107,1545,Correct
4F4K_congruent,167,387,2,97,26.45,54.48,0.03,0.86,97,1730,Correct
4F4K_congruent,167,388,2,108,75.03,64.64,0.08,1.02,108,1735,Correct
4F4K_congruent,167,389,2,97,35.11,56.46,0.04,0.89,97,781,Correct
4F4K_congruent,167,390,2,97,49.07,76.52,0.05,1.2,97,1076,Correct
4F4K_congruent,167,391,1,115,52.98,80.08,0.06,1.26,115,785,Correct
4F4K_congruent,167,392,2,108,35.96,15.0,0.04,0.24,108,1163,Correct
4F4K_congruent,167,393,2,97,54.06,81.12,0.06,1.27,97,990,Correct
4F4K_congruent,167,394,2,97,58.1,79.78,0.07,1.25,108,1009,Incorrect
4F4K_congruent,167,395,2,97,13.57,40.45,0.02,0.64,97,774,Correct
4F4K_congruent,167,396,2,108,56.08,48.82,0.06,0.77,108,1125,Correct
4F4K_congruent,167,397,2,108,58.54,48.93,0.07,0.77,108,858,Correct
4F4K_congruent,167,398,1,107,74.25,59.97,0.08,0.94,107,847,Correct
