subject,day,trial,cat,x,y,xt,yt,resp,rt,fb,f_name,acc,n_trials,block,session_type,ns_left_digit,ns_right_digit,ns_left_size,ns_right_size,ns_congruent,ns_cue,ns_correct_side,ns_resp,ns_rt,ns_fb,acc_stroop,acc_stroop_mean,resp_key
3,8,1500,B,40.76623520439108,31.076963093084572,2.038311760219554,0.4881557947455781,B,872.2002500144299,Correct,sub_003_day_08_data.csv,1,300,60.0,Training at home,,,,,,,,,,,,,
3,8,1501,B,49.26963148689569,20.03845406303642,2.4634815743447844,0.3147633003686587,B,766.5896659891587,Correct,sub_003_day_08_data.csv,1,300,60.0,Training at home,,,,,,,,,,,,,
3,8,1502,B,64.45073170363872,31.92735620598489,3.222536585181936,0.501513738526333,B,572.7975410118233,Correct,sub_003_day_08_data.csv,1,300,60.0,Training at home,,,,,,,,,,,,,
3,8,1503,B,34.66091914374084,11.011155032233525,1.733045957187042,0.1729628187840156,A,491.5781669842545,Incorrect,sub_003_day_08_data.csv,0,300,60.0,Training at home,,,,,,,,,,,,,
3,8,1504,B,69.737459013016,56.313660060973504,3.4868729506508,0.8845729037215366,B,1492.6737490168307,Correct,sub_003_day_08_data.csv,1,300,60.0,Training at home,,,,,,,,,,,,,
3,8,1505,A,28.839558758473796,47.0531333047589,1.4419779379236897,0.7391088895930591,A,487.75466601364315,Correct,sub_003_day_08_data.csv,1,300,60.0,Training at home,,,,,,,,,,,,,
3,8,1506,A,35.14552538608475,58.13748991033617,1.7572762693042376,0.913221556002314,A,698.2211240101606,Correct,sub_003_day_08_data.csv,1,300,60.0,Training at home,,,,,,,,,,,,,
3,8,1507,B,73.74657739224821,50.0101002857988,3.687328869612411,0.7855568183157716,B,514.643041009549,Correct,sub_003_day_08_data.csv,1,300,60.0,Training at home,,,,,,,,,,,,,
3,8,1508,B,85.41746945937825,64.44825185977699,4.270873472968913,1.0123507728969003,B,671.5019160183147,Correct,sub_003_day_08_data.csv,1,300,60.0,Training at home,,,,,,,,,,,,,
3,8,1509,A,55.288160117648275,84.53485864216705,2.7644080058824136,1.3278704544124182,A,793.7237079895567,Correct,sub_003_day_08_data.csv,1,300,60.0,Training at home,,,,,,,,,,,,,
3,8,1510,B,72.88475309003945,48.523701650064424,3.644237654501973,0.7622085231441266,B,707.8485410020221,Correct,sub_003_day_08_data.csv,1,300,60.0,Training at home,,,,,,,,,,,,,
3,8,1511,B,72.31369579518748,40.48960062376983,3.6156847897593742,0.6360091593321,B,525.3202079911716,Correct,sub_003_day_08_data.csv,1,300,60.0,Training at home,,,,,,,,,,,,,
3,8,1512,B,84.46659674828351,61.60483537668436,4.223329837414175,0.9676864912250008,B,497.5479999848176,Correct,sub_003_day_08_data.csv,1,300,60.0,Training at home,,,,,,,,,,,,,
3,8,1513,A,27.53520148415367,58.67311811384671,1.3767600742076838,0.9216351841483352,A,458.91841599950567,Correct,sub_003_day_08_data.csv,1,300,60.0,Training at home,,,,,,,,,,,,,
3,8,1514,A,48.071373763044704,68.86919953567975,2.403568688152235,1.0817948565995057,A,570.2236670185812,Correct,sub_003_day_08_data.csv,1,300,60.0,Training at home,,,,,,,,,,,,,
3,8,1515,A,44.80160643159523,67.71209620201259,2.240080321579762,1.0636191199370404,A,728.6460410105065,Correct,sub_003_day_08_data.csv,1,300,60.0,Training at home,,,,,,,,,,,,,
3,8,1516,B,36.321923490388166,15.993019574299058,1.8160961745194084,0.2512177640166784,A,691.878166020615,Incorrect,sub_003_day_08_data.csv,0,300,60.0,Training at home,,,,,,,,,,,,,
3,8,1517,B,68.35512205125285,39.36126188102593,3.4177561025626426,0.6182852558072752,B,626.0342080204282,Correct,sub_003_day_08_data.csv,1,300,60.0,Training at home,,,,,,,,,,,,,
3,8,1518,A,38.73510627213615,50.437945751488755,1.9367553136068072,0.792277399175188,A,686.6469990054611,Correct,sub_003_day_08_data.csv,1,300,60.0,Training at home,,,,,,,,,,,,,
3,8,1519,A,63.85098954364891,79.15605407371515,3.192549477182445,1.2433803898256997,A,737.7069999929518,Correct,sub_003_day_08_data.csv,1,300,60.0,Training at home,,,,,,,,,,,,,
3,8,1520,B,68.25167007624752,44.94191354136319,3.4125835038123764,0.7059459270990712,B,536.9079999800306,Correct,sub_003_day_08_data.csv,1,300,60.0,Training at home,,,,,,,,,,,,,
3,8,1521,A,42.09764499284104,56.974828072916566,2.104882249642052,0.8949585065670809,A,587.5253329868428,Correct,sub_003_day_08_data.csv,1,300,60.0,Training at home,,,,,,,,,,,,,
3,8,1522,B,72.99621854238033,55.7012818981332,3.6498109271190167,0.874953690033547,B,429.8714990145527,Correct,sub_003_day_08_data.csv,1,300,60.0,Training at home,,,,,,,,,,,,,
3,8,1523,B,72.33055616068171,39.69420563916502,3.616527808034085,0.6235151241304169,B,616.5547919808887,Correct,sub_003_day_08_data.csv,1,300,60.0,Training at home,,,,,,,,,,,,,
3,8,1524,A,21.581385040173245,38.45377703100014,1.0790692520086622,0.6040305171168499,A,474.08612398430705,Correct,sub_003_day_08_data.csv,1,300,60.0,Training at home,,,,,,,,,,,,,
3,8,1525,A,61.05502297565813,80.71990019750186,3.0527511487829067,1.2679452272948657,A,609.0262079960667,Correct,sub_003_day_08_data.csv,1,300,61.0,Training at home,,,,,,,,,,,,,
3,8,1526,A,25.794821222540133,54.70047362560636,1.2897410611270066,0.8592330304504359,A,584.5672080176882,Correct,sub_003_day_08_data.csv,1,300,61.0,Training at home,,,,,,,,,,,,,
3,8,1527,A,21.436041219571425,37.43032634569609,1.071802060978571,0.5879541913455366,A,436.9009579822887,Correct,sub_003_day_08_data.csv,1,300,61.0,Training at home,,,,,,,,,,,,,
3,8,1528,B,79.37719204819972,66.82728059350583,3.968859602409986,1.0497204688597084,B,569.3485829979181,Correct,sub_003_day_08_data.csv,1,300,61.0,Training at home,,,,,,,,,,,,,
3,8,1529,A,47.00952696133881,58.49460896564734,2.35047634806694,0.9188311690054266,A,812.1344159881119,Correct,sub_003_day_08_data.csv,1,300,61.0,Training at home,,,,,,,,,,,,,
3,8,1530,B,85.92739106919336,57.817597761017154,4.296369553459669,0.908196701871106,B,487.2899159963709,Correct,sub_003_day_08_data.csv,1,300,61.0,Training at home,,,,,,,,,,,,,
3,8,1531,B,51.04018269260962,29.180296376201724,2.552009134630481,0.458363023625241,B,2476.1980419862084,Correct,sub_003_day_08_data.csv,1,300,61.0,Training at home,,,,,,,,,,,,,
3,8,1532,B,56.00637823480204,27.365251196247055,2.800318911740102,0.4298523606088452,B,541.8842079816386,Correct,sub_003_day_08_data.csv,1,300,61.0,Training at home,,,,,,,,,,,,,
3,8,1533,A,45.46884305499842,66.23572240610999,2.273442152749921,1.04042829458124,A,960.8283749839756,Correct,sub_003_day_08_data.csv,1,300,61.0,Training at home,,,,,,,,,,,,,
3,8,1534,A,46.2511531613425,61.82553752294092,2.312557658067125,0.9711532724315564,A,677.0168739894871,Correct,sub_003_day_08_data.csv,1,300,61.0,Training at home,,,,,,,,,,,,,
3,8,1535,B,56.08556690197585,35.84098559085663,2.8042783450987927,0.5629888851482642,B,472.2825000062585,Correct,sub_003_day_08_data.csv,1,300,61.0,Training at home,,,,,,,,,,,,,
3,8,1536,B,36.56737843634318,20.12141494210913,1.828368921817159,0.3160664468098097,A,791.3809159945231,Incorrect,sub_003_day_08_data.csv,0,300,61.0,Training at home,,,,,,,,,,,,,
3,8,1537,A,32.96579656063901,52.8761012669422,1.648289828031951,0.8305758564534778,A,1581.6308329813182,Correct,sub_003_day_08_data.csv,1,300,61.0,Training at home,,,,,,,,,,,,,
3,8,1538,B,76.96512981725294,44.916470739486826,3.848256490862647,0.7055462725017635,B,464.26733300904743,Correct,sub_003_day_08_data.csv,1,300,61.0,Training at home,,,,,,,,,,,,,
3,8,1539,A,41.87675743748994,66.10032061274184,2.093837871874497,1.0383014081845987,A,725.3712909878232,Correct,sub_003_day_08_data.csv,1,300,61.0,Training at home,,,,,,,,,,,,,
3,8,1540,A,56.50846972262637,74.03744021186711,2.825423486131319,1.1629773913009762,A,1664.0684160229284,Correct,sub_003_day_08_data.csv,1,300,61.0,Training at home,,,,,,,,,,,,,
3,8,1541,A,60.78957120325427,81.78380411705497,3.039478560162713,1.284656990983833,A,613.3870419871528,Correct,sub_003_day_08_data.csv,1,300,61.0,Training at home,,,,,,,,,,,,,
3,8,1542,A,69.13781504825988,84.32374333662847,3.456890752412994,1.3245542629477165,A,672.0937909849454,Correct,sub_003_day_08_data.csv,1,300,61.0,Training at home,,,,,,,,,,,,,
3,8,1543,A,13.172858887773447,30.209023493380876,0.6586429443886723,0.4745222313946341,A,478.4204169991426,Correct,sub_003_day_08_data.csv,1,300,61.0,Training at home,,,,,,,,,,,,,
3,8,1544,A,37.34548647162308,68.26214090549095,1.867274323581154,1.0722592019350086,A,973.9232500141952,Correct,sub_003_day_08_data.csv,1,300,61.0,Training at home,,,,,,,,,,,,,
3,8,1545,A,47.56503837543776,71.34711701148407,2.378251918771888,1.120717893290449,A,1006.4875410171226,Correct,sub_003_day_08_data.csv,1,300,61.0,Training at home,,,,,,,,,,,,,
3,8,1546,A,13.74680473539352,33.91885358127744,0.6873402367696761,0.5327961061456453,A,458.4437920129858,Correct,sub_003_day_08_data.csv,1,300,61.0,Training at home,,,,,,,,,,,,,
3,8,1547,A,56.602457535086735,81.83928973639365,2.830122876754337,1.2855285570543042,A,964.4761250237934,Correct,sub_003_day_08_data.csv,1,300,61.0,Training at home,,,,,,,,,,,,,
3,8,1548,B,57.072244398481075,25.486794868984,2.8536122199240537,0.4003456376197508,B,1047.580457990989,Correct,sub_003_day_08_data.csv,1,300,61.0,Training at home,,,,,,,,,,,,,
3,8,1549,B,83.93392383858895,54.61274607458188,4.196696191929448,0.8578550093013563,B,491.07912500039674,Correct,sub_003_day_08_data.csv,1,300,61.0,Training at home,,,,,,,,,,,,,
3,8,1550,B,57.47963155499602,28.74619516190902,2.873981577749801,0.4515441776965592,B,698.7450419983361,Correct,sub_003_day_08_data.csv,1,300,62.0,Training at home,,,,,,,,,,,,,
3,8,1551,B,63.83992874485027,39.688786898561766,3.191996437242514,0.6234300067520624,B,453.0055409995839,Correct,sub_003_day_08_data.csv,1,300,62.0,Training at home,,,,,,,,,,,,,
3,8,1552,B,80.30086980461105,60.83924336595078,4.0150434902305525,0.9556606000421628,B,459.9202499957755,Correct,sub_003_day_08_data.csv,1,300,62.0,Training at home,,,,,,,,,,,,,
3,8,1553,B,39.01327917735872,23.94399024466241,1.950663958867936,0.3761113192512855,A,743.4828740078956,Incorrect,sub_003_day_08_data.csv,0,300,62.0,Training at home,,,,,,,,,,,,,
3,8,1554,B,50.30575966579164,27.362710439497025,2.515287983289582,0.429812450495143,B,525.9603750018869,Correct,sub_003_day_08_data.csv,1,300,62.0,Training at home,,,,,,,,,,,,,
3,8,1555,A,59.40478482937194,80.4198881387689,2.970239241468597,1.2632326488963463,A,530.3337080113124,Correct,sub_003_day_08_data.csv,1,300,62.0,Training at home,,,,,,,,,,,,,
3,8,1556,B,62.92167353439491,51.64591714671587,3.146083676719746,0.8112521694801486,B,666.2283750192728,Correct,sub_003_day_08_data.csv,1,300,62.0,Training at home,,,,,,,,,,,,,
3,8,1557,B,64.52047154231342,40.34120590237548,3.226023577115671,0.63367818049928,B,520.474707998801,Correct,sub_003_day_08_data.csv,1,300,62.0,Training at home,,,,,,,,,,,,,
3,8,1558,A,48.54939734646833,60.45801275361435,2.4274698673234165,0.9496722435869642,A,631.656623998424,Correct,sub_003_day_08_data.csv,1,300,62.0,Training at home,,,,,,,,,,,,,
3,8,1559,A,51.0126299772193,66.54134882066239,2.5506314988609646,1.045229063074744,A,1296.1052079917863,Correct,sub_003_day_08_data.csv,1,300,62.0,Training at home,,,,,,,,,,,,,
3,8,1560,A,51.72535358720319,61.799821218845715,2.5862676793601596,0.9707493216714416,A,1019.7486660035792,Correct,sub_003_day_08_data.csv,1,300,62.0,Training at home,,,,,,,,,,,,,
3,8,1561,A,46.96999732750946,63.79687083019535,2.348499866375473,1.0021189036107934,A,681.9213739945553,Correct,sub_003_day_08_data.csv,1,300,62.0,Training at home,,,,,,,,,,,,,
3,8,1562,B,43.87883058250578,23.55098393453812,2.1939415291252886,0.369937990567781,B,2107.945123978425,Correct,sub_003_day_08_data.csv,1,300,62.0,Training at home,,,,,,,,,,,,,
3,8,1563,A,29.448938521443107,55.39757889069307,1.472446926072155,0.8701831343483116,A,609.195124998223,Correct,sub_003_day_08_data.csv,1,300,62.0,Training at home,,,,,,,,,,,,,
3,8,1564,B,56.989865889417395,40.764170239454224,2.8494932944708697,0.6403220887697653,B,1155.3624579973985,Correct,sub_003_day_08_data.csv,1,300,62.0,Training at home,,,,,,,,,,,,,
3,8,1565,B,41.61257311668247,21.13689495823338,2.080628655834124,0.3320175696024256,B,1313.7263329990674,Correct,sub_003_day_08_data.csv,1,300,62.0,Training at home,,,,,,,,,,,,,
3,8,1566,A,65.8451712970356,78.33793538262579,3.2922585648517804,1.2305294114772456,A,525.9371659776662,Correct,sub_003_day_08_data.csv,1,300,62.0,Training at home,,,,,,,,,,,,,
3,8,1567,A,37.08972320506287,52.76275106113688,1.8544861602531433,0.8287953555842735,B,834.9669169983827,Incorrect,sub_003_day_08_data.csv,0,300,62.0,Training at home,,,,,,,,,,,,,
3,8,1568,A,29.2593364145536,50.93331902937888,1.4629668207276805,0.8000587044282096,A,544.3036659853533,Correct,sub_003_day_08_data.csv,1,300,62.0,Training at home,,,,,,,,,,,,,
3,8,1569,B,82.86278894942107,59.59481880014699,4.143139447471054,0.9361132246727832,B,582.0028739981353,Correct,sub_003_day_08_data.csv,1,300,62.0,Training at home,,,,,,,,,,,,,
3,8,1570,A,24.559786752485373,51.49764685568719,1.2279893376242683,0.8089231451949418,A,438.6417909990996,Correct,sub_003_day_08_data.csv,1,300,62.0,Training at home,,,,,,,,,,,,,
3,8,1571,A,39.21608093044432,49.254746674609635,1.960804046522216,0.7736917515368996,A,806.1714579816908,Correct,sub_003_day_08_data.csv,1,300,62.0,Training at home,,,,,,,,,,,,,
3,8,1572,B,49.25038923748791,23.800219781927016,2.4625194618743955,0.3738529781036219,B,535.428041999694,Correct,sub_003_day_08_data.csv,1,300,62.0,Training at home,,,,,,,,,,,,,
3,8,1573,B,56.598055226290974,44.687594514460834,2.829902761314549,0.7019510931661485,B,486.84420800418593,Correct,sub_003_day_08_data.csv,1,300,62.0,Training at home,,,,,,,,,,,,,
3,8,1574,A,29.29258631593048,39.351016467686506,1.4646293157965238,0.6181243212308745,A,509.0776249999181,Correct,sub_003_day_08_data.csv,1,300,62.0,Training at home,,,,,,,,,,,,,
3,8,1575,B,75.40542195613617,55.51865640517868,3.770271097806808,0.8720850154984262,B,482.821082987357,Correct,sub_003_day_08_data.csv,1,300,63.0,Training at home,,,,,,,,,,,,,
3,8,1576,B,67.57139290278194,48.98255550264764,3.378569645139097,0.7694161826058608,B,468.7603329948615,Correct,sub_003_day_08_data.csv,1,300,63.0,Training at home,,,,,,,,,,,,,
3,8,1577,B,52.463887899294015,32.879346689108644,2.6231943949647007,0.516467570066678,B,468.27308300998993,Correct,sub_003_day_08_data.csv,1,300,63.0,Training at home,,,,,,,,,,,,,
3,8,1578,B,56.49077821975449,48.04679473860838,2.8245389109877244,0.754717286896744,B,665.8007910009474,Correct,sub_003_day_08_data.csv,1,300,63.0,Training at home,,,,,,,,,,,,,
3,8,1579,B,53.810187820580495,25.551648296690377,2.6905093910290248,0.4013643528799632,B,710.0623330043163,Correct,sub_003_day_08_data.csv,1,300,63.0,Training at home,,,,,,,,,,,,,
3,8,1580,A,39.56984506694259,50.36088185588052,1.9784922533471296,0.7910668823336887,A,647.2319580207113,Correct,sub_003_day_08_data.csv,1,300,63.0,Training at home,,,,,,,,,,,,,
3,8,1581,B,76.74262765010421,55.74947168440172,3.837131382505211,0.8757106534261433,B,546.0437909932807,Correct,sub_003_day_08_data.csv,1,300,63.0,Training at home,,,,,,,,,,,,,
3,8,1582,B,58.4977300856226,45.55946592101124,2.9248865042811296,0.7156464171946172,B,380.83391601685435,Correct,sub_003_day_08_data.csv,1,300,63.0,Training at home,,,,,,,,,,,,,
3,8,1583,B,73.55969798742657,60.50941553192927,3.677984899371329,0.9504796765406056,B,458.323582977755,Correct,sub_003_day_08_data.csv,1,300,63.0,Training at home,,,,,,,,,,,,,
3,8,1584,B,74.96919666081442,55.17864437015864,3.748459833040721,0.8667441189416709,B,417.3448330257088,Correct,sub_003_day_08_data.csv,1,300,63.0,Training at home,,,,,,,,,,,,,
3,8,1585,A,57.59667447896531,84.75783173669754,2.879833723948266,1.331372907591044,A,579.3620829936117,Correct,sub_003_day_08_data.csv,1,300,63.0,Training at home,,,,,,,,,,,,,
3,8,1586,B,51.05322328159281,30.636070249484497,2.55266116407964,0.4812302661532065,B,613.405915995827,Correct,sub_003_day_08_data.csv,1,300,63.0,Training at home,,,,,,,,,,,,,
3,8,1587,B,75.45309636258334,44.86702395779229,3.772654818129167,0.7047695642711874,B,456.1408750014379,Correct,sub_003_day_08_data.csv,1,300,63.0,Training at home,,,,,,,,,,,,,
3,8,1588,A,57.484297489349,84.02981679543065,2.87421487446745,1.3199372756351055,A,561.7177920066752,Correct,sub_003_day_08_data.csv,1,300,63.0,Training at home,,,,,,,,,,,,,
3,8,1589,B,69.55049521345613,49.87529033813982,3.477524760672807,0.7834392286097903,B,620.6263740023132,Correct,sub_003_day_08_data.csv,1,300,63.0,Training at home,,,,,,,,,,,,,
3,8,1590,B,84.68803309778032,58.209448170514165,4.234401654889016,0.9143518737100156,B,703.5727080074139,Correct,sub_003_day_08_data.csv,1,300,63.0,Training at home,,,,,,,,,,,,,
3,8,1591,A,52.888071171625725,73.23436765880213,2.644403558581286,1.1503627571359334,A,751.7376659961883,Correct,sub_003_day_08_data.csv,1,300,63.0,Training at home,,,,,,,,,,,,,
3,8,1592,A,37.07515426063366,56.31438616830686,1.8537577130316831,0.8845843093888576,A,604.8329990007915,Correct,sub_003_day_08_data.csv,1,300,63.0,Training at home,,,,,,,,,,,,,
3,8,1593,B,79.26479856685185,57.12927494092497,3.963239928342592,0.8973845522966069,B,438.3441660029348,Correct,sub_003_day_08_data.csv,1,300,63.0,Training at home,,,,,,,,,,,,,
3,8,1594,A,15.42665568443745,39.59236346396497,0.7713327842218725,0.6219153909832464,A,497.1569999761414,Correct,sub_003_day_08_data.csv,1,300,63.0,Training at home,,,,,,,,,,,,,
3,8,1595,B,57.551893536425055,44.431761726687824,2.8775946768212526,0.697932481133073,B,897.9372500034515,Correct,sub_003_day_08_data.csv,1,300,63.0,Training at home,,,,,,,,,,,,,
3,8,1596,B,47.56408500418347,20.576959932286226,2.3782042502091736,0.3232221307824096,B,998.860040999716,Correct,sub_003_day_08_data.csv,1,300,63.0,Training at home,,,,,,,,,,,,,
3,8,1597,B,66.44137567379117,42.81250420124687,3.322068783689559,0.6724972434020966,B,506.1409579939209,Correct,sub_003_day_08_data.csv,1,300,63.0,Training at home,,,,,,,,,,,,,
3,8,1598,B,54.27750323633284,37.76594881241776,2.7138751618166417,0.593226136724699,B,501.2097919825465,Correct,sub_003_day_08_data.csv,1,300,63.0,Training at home,,,,,,,,,,,,,
3,8,1599,A,39.09666755969125,63.8247760501915,1.9548333779845624,1.002557237781477,A,586.0537489934359,Correct,sub_003_day_08_data.csv,1,300,63.0,Training at home,,,,,,,,,,,,,
3,8,1600,B,41.551028968960026,24.217433676782065,2.077551448448001,0.3804065586388829,B,719.8822920036037,Correct,sub_003_day_08_data.csv,1,300,64.0,Training at home,,,,,,,,,,,,,
3,8,1601,B,36.61718477199759,19.908551887103886,1.8308592385998796,0.3127228017606839,A,793.360498995753,Incorrect,sub_003_day_08_data.csv,0,300,64.0,Training at home,,,,,,,,,,,,,
3,8,1602,A,26.463852031697016,47.811796011330664,1.3231926015848507,0.751025935520651,A,1102.828083006898,Correct,sub_003_day_08_data.csv,1,300,64.0,Training at home,,,,,,,,,,,,,
3,8,1603,A,38.9051678649639,62.99597386843923,1.945258393248195,0.9895384435541164,A,550.9907490049955,Correct,sub_003_day_08_data.csv,1,300,64.0,Training at home,,,,,,,,,,,,,
3,8,1604,A,39.676587395643914,67.74780414642235,1.9838293697821956,1.064180019016203,B,2909.879707993241,Incorrect,sub_003_day_08_data.csv,0,300,64.0,Training at home,,,,,,,,,,,,,
3,8,1605,B,35.577215717349134,19.4530730684774,1.7788607858674568,0.3055681572083703,A,1852.8978739923332,Incorrect,sub_003_day_08_data.csv,0,300,64.0,Training at home,,,,,,,,,,,,,
3,8,1606,A,34.58656792010227,49.77437422377323,1.7293283960051131,0.7818540419921756,A,1323.7736670125742,Correct,sub_003_day_08_data.csv,1,300,64.0,Training at home,,,,,,,,,,,,,
3,8,1607,B,71.86562462682677,49.74801939425919,3.5932812313413387,0.781440061298236,B,528.9972909959033,Correct,sub_003_day_08_data.csv,1,300,64.0,Training at home,,,,,,,,,,,,,
3,8,1608,B,79.57338616036435,54.32906906022471,3.9786693080182176,0.8533990211798723,B,541.0144579946063,Correct,sub_003_day_08_data.csv,1,300,64.0,Training at home,,,,,,,,,,,,,
3,8,1609,B,68.1133137216971,40.23577403040724,3.405665686084854,0.632022060527132,B,450.8721250167582,Correct,sub_003_day_08_data.csv,1,300,64.0,Training at home,,,,,,,,,,,,,
3,8,1610,A,12.774783428541486,37.552755106454995,0.6387391714270743,0.5898772978224781,A,747.1789999981411,Correct,sub_003_day_08_data.csv,1,300,64.0,Training at home,,,,,,,,,,,,,
3,8,1611,A,48.22369271006821,68.47736179112601,2.4111846355034103,1.0756398837010597,A,667.0626659761183,Correct,sub_003_day_08_data.csv,1,300,64.0,Training at home,,,,,,,,,,,,,
3,8,1612,A,48.438103782627174,62.85050510960158,2.4219051891313588,0.9872534256336604,B,2456.4904579892755,Incorrect,sub_003_day_08_data.csv,0,300,64.0,Training at home,,,,,,,,,,,,,
3,8,1613,B,52.80467717159388,32.66507696942956,2.640233858579694,0.5131018291805253,B,665.2803749893792,Correct,sub_003_day_08_data.csv,1,300,64.0,Training at home,,,,,,,,,,,,,
3,8,1614,A,22.86780656633963,39.195989233308865,1.1433903283169815,0.6156891591277388,A,440.04604101064615,Correct,sub_003_day_08_data.csv,1,300,64.0,Training at home,,,,,,,,,,,,,
3,8,1615,A,23.77010598121385,42.94443671518153,1.1885052990606924,0.6745696344848304,A,433.1799159990624,Correct,sub_003_day_08_data.csv,1,300,64.0,Training at home,,,,,,,,,,,,,
3,8,1616,A,60.55016650155477,74.54041957863755,3.0275083250777386,1.1708781727187427,A,752.9909999866504,Correct,sub_003_day_08_data.csv,1,300,64.0,Training at home,,,,,,,,,,,,,
3,8,1617,A,50.253347352347774,60.45857330106878,2.5126673676173885,0.9496810486457884,B,1910.233958013123,Incorrect,sub_003_day_08_data.csv,0,300,64.0,Training at home,,,,,,,,,,,,,
3,8,1618,A,16.34694109265576,43.27137748659658,0.817347054632788,0.6797052081130128,A,511.8310410180129,Correct,sub_003_day_08_data.csv,1,300,64.0,Training at home,,,,,,,,,,,,,
3,8,1619,A,68.16889398488381,83.39304501412758,3.408444699244191,1.3099348878843309,A,722.6107080059592,Correct,sub_003_day_08_data.csv,1,300,64.0,Training at home,,,,,,,,,,,,,
3,8,1620,A,31.652979133911497,49.305152971325384,1.5826489566955746,0.7744835317941839,A,513.3074159966782,Correct,sub_003_day_08_data.csv,1,300,64.0,Training at home,,,,,,,,,,,,,
3,8,1621,B,35.138043925129395,17.983864405422302,1.75690219625647,0.2824898814961483,A,736.6059579944704,Incorrect,sub_003_day_08_data.csv,0,300,64.0,Training at home,,,,,,,,,,,,,
3,8,1622,B,81.89798460519506,53.101579914822786,4.094899230259753,0.8341176667720926,B,543.4035409998614,Correct,sub_003_day_08_data.csv,1,300,64.0,Training at home,,,,,,,,,,,,,
3,8,1623,B,32.765893232467164,11.797056938970591,1.6382946616233582,0.1853077370672525,A,905.1314169773832,Incorrect,sub_003_day_08_data.csv,0,300,64.0,Training at home,,,,,,,,,,,,,
3,8,1624,A,46.35129034349237,54.211427572240865,2.317564517174618,0.8515511130078351,B,2466.839873988647,Incorrect,sub_003_day_08_data.csv,0,300,64.0,Training at home,,,,,,,,,,,,,
3,8,1625,A,22.574548881723196,39.385531559583434,1.1287274440861597,0.6186664830265813,A,418.88758301502094,Correct,sub_003_day_08_data.csv,1,300,65.0,Training at home,,,,,,,,,,,,,
3,8,1626,B,61.25872296016717,40.598644298517726,3.062936148008358,0.6377220133696422,B,660.4799159977119,Correct,sub_003_day_08_data.csv,1,300,65.0,Training at home,,,,,,,,,,,,,
3,8,1627,B,42.32333076094679,27.44455108491207,2.1161665380473393,0.4310980003471477,B,630.4089170007501,Correct,sub_003_day_08_data.csv,1,300,65.0,Training at home,,,,,,,,,,,,,
3,8,1628,A,57.89507866955335,75.53174721975637,2.8947539334776673,1.1864499108919395,A,576.3011660019401,Correct,sub_003_day_08_data.csv,1,300,65.0,Training at home,,,,,,,,,,,,,
3,8,1629,A,43.16833710601805,69.24316968879697,2.1584168553009024,1.0876691660279798,A,1033.5692079970613,Correct,sub_003_day_08_data.csv,1,300,65.0,Training at home,,,,,,,,,,,,,
3,8,1630,A,22.988385077301633,37.80975141119703,1.1494192538650816,0.5939141863373645,A,494.9190000188537,Correct,sub_003_day_08_data.csv,1,300,65.0,Training at home,,,,,,,,,,,,,
3,8,1631,A,39.22041056297324,50.03451144464776,1.9610205281486623,0.7859402679022992,A,1163.4550830058288,Correct,sub_003_day_08_data.csv,1,300,65.0,Training at home,,,,,,,,,,,,,
3,8,1632,B,63.60328978389419,46.546862439848155,3.1801644891947096,0.7311564054434083,B,536.6337079904042,Correct,sub_003_day_08_data.csv,1,300,65.0,Training at home,,,,,,,,,,,,,
3,8,1633,A,36.022676678470496,60.48375926762063,1.801133833923525,0.9500766688832526,A,934.0092500206084,Correct,sub_003_day_08_data.csv,1,300,65.0,Training at home,,,,,,,,,,,,,
3,8,1634,B,36.1686171562166,14.354402645386736,1.80843085781083,0.2254784294870843,A,1012.9733329813462,Incorrect,sub_003_day_08_data.csv,0,300,65.0,Training at home,,,,,,,,,,,,,
3,8,1635,B,62.81813520063714,53.23406637979005,3.140906760031857,0.8361987592972989,B,477.9939580184873,Correct,sub_003_day_08_data.csv,1,300,65.0,Training at home,,,,,,,,,,,,,
3,8,1636,B,84.14173386960724,60.501031389843135,4.207086693480362,0.9503479787446834,B,499.55020801280625,Correct,sub_003_day_08_data.csv,1,300,65.0,Training at home,,,,,,,,,,,,,
3,8,1637,B,85.49106395104326,57.68145552335746,4.274553197552163,0.9060581846027308,B,473.5067080182489,Correct,sub_003_day_08_data.csv,1,300,65.0,Training at home,,,,,,,,,,,,,
3,8,1638,A,17.173013041349066,33.49305779151139,0.8586506520674533,0.5261077215203528,A,490.4548740014434,Correct,sub_003_day_08_data.csv,1,300,65.0,Training at home,,,,,,,,,,,,,
3,8,1639,A,58.37534574699241,69.31916612009742,2.9187672873496204,1.0888629151793427,A,1719.6300000068732,Correct,sub_003_day_08_data.csv,1,300,65.0,Training at home,,,,,,,,,,,,,
3,8,1640,A,48.12491933675557,62.75330073002775,2.4062459668377785,0.9857265428098312,A,652.3975830059499,Correct,sub_003_day_08_data.csv,1,300,65.0,Training at home,,,,,,,,,,,,,
3,8,1641,A,14.9003193784045,35.535640782193994,0.745015968920225,0.5581925401097325,A,492.6537499995902,Correct,sub_003_day_08_data.csv,1,300,65.0,Training at home,,,,,,,,,,,,,
3,8,1642,B,76.4343385446407,65.02424128919168,3.8217169272320346,1.0213983936968734,B,513.508375006495,Correct,sub_003_day_08_data.csv,1,300,65.0,Training at home,,,,,,,,,,,,,
3,8,1643,A,68.63624233106998,83.7985662178607,3.431812116553499,1.3163048000569448,A,632.4919579783455,Correct,sub_003_day_08_data.csv,1,300,65.0,Training at home,,,,,,,,,,,,,
3,8,1644,A,24.96407475887026,53.100921087002135,1.248203737943513,0.8341073179288861,A,442.51799999619834,Correct,sub_003_day_08_data.csv,1,300,65.0,Training at home,,,,,,,,,,,,,
3,8,1645,A,49.88957879496525,75.51101143046465,2.4944789397482627,1.1861241938754132,A,555.8091250131838,Correct,sub_003_day_08_data.csv,1,300,65.0,Training at home,,,,,,,,,,,,,
3,8,1646,A,36.171123074786834,53.33159077856556,1.8085561537393415,0.8377306689709937,A,571.5607080201153,Correct,sub_003_day_08_data.csv,1,300,65.0,Training at home,,,,,,,,,,,,,
3,8,1647,A,33.798633101639936,58.102136095425976,1.689931655081997,0.912666219576323,A,504.1755830170586,Correct,sub_003_day_08_data.csv,1,300,65.0,Training at home,,,,,,,,,,,,,
3,8,1648,A,41.12981154608046,57.03560903446857,2.0564905773040234,0.8959132516785304,A,497.7422919764649,Correct,sub_003_day_08_data.csv,1,300,65.0,Training at home,,,,,,,,,,,,,
3,8,1649,A,62.69787607750004,73.87118567378808,3.134893803875002,1.1603658711237008,A,738.1225829885807,Correct,sub_003_day_08_data.csv,1,300,65.0,Training at home,,,,,,,,,,,,,
3,8,1650,B,54.483924707661984,42.13154585579253,2.724196235383099,0.6618007747246965,B,665.5562919913791,Correct,sub_003_day_08_data.csv,1,300,66.0,Training at home,,,,,,,,,,,,,
3,8,1651,A,66.9083736344471,84.68177110743383,3.3454186817223555,1.3301781500204326,A,816.7767499980982,Correct,sub_003_day_08_data.csv,1,300,66.0,Training at home,,,,,,,,,,,,,
3,8,1652,A,34.96321067622494,50.72893701498772,1.7481605338112471,0.7968482792535238,A,560.3355420171283,Correct,sub_003_day_08_data.csv,1,300,66.0,Training at home,,,,,,,,,,,,,
3,8,1653,B,72.1887285298206,51.63707461148525,3.6094364264910297,0.8111132712615505,B,579.9967079947237,Correct,sub_003_day_08_data.csv,1,300,66.0,Training at home,,,,,,,,,,,,,
3,8,1654,B,43.60315274376851,22.39285414341983,2.1801576371884255,0.3517461303493775,A,484.949541016249,Incorrect,sub_003_day_08_data.csv,0,300,66.0,Training at home,,,,,,,,,,,,,
3,8,1655,A,25.125877617113545,46.53827894918343,1.2562938808556772,0.7310215762873358,A,482.3092079896014,Correct,sub_003_day_08_data.csv,1,300,66.0,Training at home,,,,,,,,,,,,,
3,8,1656,B,45.67582209729187,26.280516299750747,2.283791104864594,0.4128133846992188,B,671.8399579985999,Correct,sub_003_day_08_data.csv,1,300,66.0,Training at home,,,,,,,,,,,,,
3,8,1657,A,27.438810516678153,37.027993949294384,1.3719405258339077,0.5816343688413527,A,462.11600000970066,Correct,sub_003_day_08_data.csv,1,300,66.0,Training at home,,,,,,,,,,,,,
3,8,1658,A,11.508637026783475,30.693466287643947,0.5754318513391737,0.4821318410123411,A,432.5914999935776,Correct,sub_003_day_08_data.csv,1,300,66.0,Training at home,,,,,,,,,,,,,
3,8,1659,A,62.73709789712423,80.81982083548753,3.1368548948562114,1.2695147770060546,A,542.2187079966534,Correct,sub_003_day_08_data.csv,1,300,66.0,Training at home,,,,,,,,,,,,,
3,8,1660,B,72.86920492383425,47.50634022837613,3.643460246191712,0.7462278473020185,B,533.9477489760611,Correct,sub_003_day_08_data.csv,1,300,66.0,Training at home,,,,,,,,,,,,,
3,8,1661,A,51.13051571165751,64.56201650685787,2.5565257855828754,1.014137783794438,B,734.4208330032416,Incorrect,sub_003_day_08_data.csv,0,300,66.0,Training at home,,,,,,,,,,,,,
3,8,1662,B,50.62331307372692,32.05929354587907,2.531165653686346,0.5035862054150618,A,462.6115830033086,Incorrect,sub_003_day_08_data.csv,0,300,66.0,Training at home,,,,,,,,,,,,,
3,8,1663,B,86.68460062766637,68.125490619467,4.334230031383319,1.0701127042615894,B,641.0836249997374,Correct,sub_003_day_08_data.csv,1,300,66.0,Training at home,,,,,,,,,,,,,
3,8,1664,B,50.05519989401152,29.67587145819666,2.5027599947005763,0.4661474988097283,B,447.5497080129571,Correct,sub_003_day_08_data.csv,1,300,66.0,Training at home,,,,,,,,,,,,,
3,8,1665,B,54.25036985819249,25.618498356279964,2.712518492909625,0.4024144311604566,B,490.68724998505786,Correct,sub_003_day_08_data.csv,1,300,66.0,Training at home,,,,,,,,,,,,,
3,8,1666,A,50.076039476609154,57.16633520277563,2.5038019738304573,0.8979666935284573,B,642.2401659947354,Incorrect,sub_003_day_08_data.csv,0,300,66.0,Training at home,,,,,,,,,,,,,
3,8,1667,A,53.01067677176826,63.3966773117746,2.650533838588413,0.995832678523369,A,916.900040989276,Correct,sub_003_day_08_data.csv,1,300,66.0,Training at home,,,,,,,,,,,,,
3,8,1668,B,61.17472551053026,37.383097682459415,3.058736275526513,0.5872123252382205,B,551.9728749932256,Correct,sub_003_day_08_data.csv,1,300,66.0,Training at home,,,,,,,,,,,,,
3,8,1669,B,47.66852871447315,19.589347372514943,2.3834264357236576,0.3077087489705573,B,825.4724159778561,Correct,sub_003_day_08_data.csv,1,300,66.0,Training at home,,,,,,,,,,,,,
3,8,1670,B,71.46282232066461,59.251074993742826,3.5731411160332307,0.9307137095882018,B,1570.9124580025673,Correct,sub_003_day_08_data.csv,1,300,66.0,Training at home,,,,,,,,,,,,,
3,8,1671,B,42.32588466447005,19.11754254746992,2.116294233223502,0.300297656109109,A,1157.8314999933357,Incorrect,sub_003_day_08_data.csv,0,300,66.0,Training at home,,,,,,,,,,,,,
3,8,1672,B,35.41461394714483,21.956598306174698,1.7707306973572414,0.3448934396825026,B,658.9007500151638,Correct,sub_003_day_08_data.csv,1,300,66.0,Training at home,,,,,,,,,,,,,
3,8,1673,B,75.57627975754981,56.1940823672576,3.7788139878774905,0.882694581700981,B,698.6056249879766,Correct,sub_003_day_08_data.csv,1,300,66.0,Training at home,,,,,,,,,,,,,
3,8,1674,B,58.293398154123096,25.999654932702505,2.914669907706155,0.4084016246622391,B,433.79858299158514,Correct,sub_003_day_08_data.csv,1,300,66.0,Training at home,,,,,,,,,,,,,
3,8,1675,A,52.558295576149185,69.32627568988774,2.627914778807459,1.08897459204046,A,564.5408749987837,Correct,sub_003_day_08_data.csv,1,300,67.0,Training at home,,,,,,,,,,,,,
3,8,1676,B,33.73547901623419,16.656715424623844,1.6867739508117094,0.2616430740546703,A,455.8072079962585,Incorrect,sub_003_day_08_data.csv,0,300,67.0,Training at home,,,,,,,,,,,,,
3,8,1677,A,29.76816653397168,50.809492650788535,1.488408326698584,0.7981136442217093,A,638.9963330002502,Correct,sub_003_day_08_data.csv,1,300,67.0,Training at home,,,,,,,,,,,,,
3,8,1678,A,45.77377472076024,68.78881468464023,2.288688736038012,1.080532174312077,A,497.2576660220511,Correct,sub_003_day_08_data.csv,1,300,67.0,Training at home,,,,,,,,,,,,,
3,8,1679,B,58.4331260675967,39.48814153682949,2.9216563033798355,0.6202782767800873,B,608.142457989743,Correct,sub_003_day_08_data.csv,1,300,67.0,Training at home,,,,,,,,,,,,,
3,8,1680,B,77.02306519381116,55.02325108617043,3.851153259690558,0.8643032069446982,B,597.1267909917515,Correct,sub_003_day_08_data.csv,1,300,67.0,Training at home,,,,,,,,,,,,,
3,8,1681,B,61.16057309758881,43.118497292930655,3.05802865487944,0.6773037716465117,B,687.3382909980137,Correct,sub_003_day_08_data.csv,1,300,67.0,Training at home,,,,,,,,,,,,,
3,8,1682,B,58.44806019387845,43.45586236417728,2.922403009693922,0.6826030897935427,B,568.7230000039563,Correct,sub_003_day_08_data.csv,1,300,67.0,Training at home,,,,,,,,,,,,,
3,8,1683,B,73.15877333804879,43.16798203251821,3.657938666902439,0.678081076118277,B,439.40379199921153,Correct,sub_003_day_08_data.csv,1,300,67.0,Training at home,,,,,,,,,,,,,
3,8,1684,A,42.10810081983646,66.97713696644715,2.105405040991823,1.0520744072613388,A,593.1967499782331,Correct,sub_003_day_08_data.csv,1,300,67.0,Training at home,,,,,,,,,,,,,
3,8,1685,A,22.129147640182747,43.48418289113541,1.1064573820091377,0.6830479475907297,A,468.92099900287576,Correct,sub_003_day_08_data.csv,1,300,67.0,Training at home,,,,,,,,,,,,,
3,8,1686,A,29.342844797669372,56.55761912630043,1.4671422398834688,0.888405003758575,A,474.8192909755744,Correct,sub_003_day_08_data.csv,1,300,67.0,Training at home,,,,,,,,,,,,,
3,8,1687,B,70.6525941687654,55.31417750187825,3.5326297084382703,0.8688730683963126,B,444.9900409963448,Correct,sub_003_day_08_data.csv,1,300,67.0,Training at home,,,,,,,,,,,,,
3,8,1688,B,66.4182624795964,37.265126047650384,3.3209131239798193,0.5853592311319804,B,546.9148330157623,Correct,sub_003_day_08_data.csv,1,300,67.0,Training at home,,,,,,,,,,,,,
3,8,1689,B,58.46541820084719,42.84139639985009,2.9232709100423597,0.6729510809964863,B,470.1615830126684,Correct,sub_003_day_08_data.csv,1,300,67.0,Training at home,,,,,,,,,,,,,
3,8,1690,B,71.30162811081792,45.68266752306409,3.5650814055408957,0.7175816634342159,B,442.8568329894915,Correct,sub_003_day_08_data.csv,1,300,67.0,Training at home,,,,,,,,,,,,,
3,8,1691,B,77.73901450600513,64.311143642773,3.886950725300256,1.010197082060468,B,397.8383330104407,Correct,sub_003_day_08_data.csv,1,300,67.0,Training at home,,,,,,,,,,,,,
3,8,1692,B,41.00060370507856,24.69954968316754,2.050030185253928,0.3879796191580762,A,762.4246240011416,Incorrect,sub_003_day_08_data.csv,0,300,67.0,Training at home,,,,,,,,,,,,,
3,8,1693,B,42.33648914212659,31.127925290587974,2.1168244571063295,0.4889563070720155,B,540.0947080051992,Correct,sub_003_day_08_data.csv,1,300,67.0,Training at home,,,,,,,,,,,,,
3,8,1694,A,13.160334707359484,31.406361533282325,0.6580167353679742,0.493329973344724,A,639.497708005365,Correct,sub_003_day_08_data.csv,1,300,67.0,Training at home,,,,,,,,,,,,,
3,8,1695,A,15.293262778860946,41.280904221467914,0.7646631389430474,0.6484389271785373,A,457.38462498411536,Correct,sub_003_day_08_data.csv,1,300,67.0,Training at home,,,,,,,,,,,,,
3,8,1696,A,30.367860230365142,46.89970612538462,1.5183930115182571,0.7366988610951425,A,489.5557079871651,Correct,sub_003_day_08_data.csv,1,300,67.0,Training at home,,,,,,,,,,,,,
3,8,1697,A,15.27898613384118,36.51539428215643,0.7639493066920591,0.573582472098787,A,444.17220799368806,Correct,sub_003_day_08_data.csv,1,300,67.0,Training at home,,,,,,,,,,,,,
3,8,1698,A,35.286383607072224,65.14295304002147,1.7643191803536111,1.0232631135183816,A,557.6165420061443,Correct,sub_003_day_08_data.csv,1,300,67.0,Training at home,,,,,,,,,,,,,
3,8,1699,B,64.77895096361755,51.57291809435045,3.238947548180877,0.8101055030469975,B,426.2223750120029,Correct,sub_003_day_08_data.csv,1,300,67.0,Training at home,,,,,,,,,,,,,
3,8,1700,A,41.7364863602914,54.759684609907175,2.08682431801457,0.8601631144168921,A,459.85524999559857,Correct,sub_003_day_08_data.csv,1,300,68.0,Training at home,,,,,,,,,,,,,
3,8,1701,A,43.85983757774856,51.41206397906252,2.192991878887428,0.8075788125125561,A,522.6496240065899,Correct,sub_003_day_08_data.csv,1,300,68.0,Training at home,,,,,,,,,,,,,
3,8,1702,A,46.365784991120755,62.28902081889649,2.3182892495560377,0.9784336510197345,A,531.5801239921711,Correct,sub_003_day_08_data.csv,1,300,68.0,Training at home,,,,,,,,,,,,,
3,8,1703,B,70.04510516269345,57.154284697483625,3.5022552581346726,0.8977774046339704,B,484.197125013452,Correct,sub_003_day_08_data.csv,1,300,68.0,Training at home,,,,,,,,,,,,,
3,8,1704,B,37.46959406142077,22.0920744322509,1.8734797030710384,0.3470214936945917,A,654.0704579965677,Incorrect,sub_003_day_08_data.csv,0,300,68.0,Training at home,,,,,,,,,,,,,
3,8,1705,B,72.46928791500697,39.75319408493869,3.6234643957503487,0.6244417124698631,B,661.7753749887925,Correct,sub_003_day_08_data.csv,1,300,68.0,Training at home,,,,,,,,,,,,,
3,8,1706,A,63.76021711121365,77.9591267640265,3.1880108555606825,1.224579099610705,A,620.3452500049025,Correct,sub_003_day_08_data.csv,1,300,68.0,Training at home,,,,,,,,,,,,,
3,8,1707,B,53.62204922326907,24.443114492202213,2.6811024611634537,0.3839515445977833,B,483.0249999940861,Correct,sub_003_day_08_data.csv,1,300,68.0,Training at home,,,,,,,,,,,,,
3,8,1708,A,66.46369543134642,81.09720273099155,3.323184771567321,1.273871881631826,A,535.8843749854714,Correct,sub_003_day_08_data.csv,1,300,68.0,Training at home,,,,,,,,,,,,,
3,8,1709,A,33.735490696155594,46.091437868148205,1.6867745348077796,0.724002612999824,A,579.9213330028579,Correct,sub_003_day_08_data.csv,1,300,68.0,Training at home,,,,,,,,,,,,,
3,8,1710,A,31.40146402776404,40.68207916973468,1.570073201388202,0.639032605261984,A,509.3556250212714,Correct,sub_003_day_08_data.csv,1,300,68.0,Training at home,,,,,,,,,,,,,
3,8,1711,A,55.08208607829283,63.63515285489575,2.754104303914642,0.9995786435950202,A,551.7284160014242,Correct,sub_003_day_08_data.csv,1,300,68.0,Training at home,,,,,,,,,,,,,
3,8,1712,B,48.44626796542302,28.43357345360663,2.422313398271151,0.4466335273857819,B,521.7225410160609,Correct,sub_003_day_08_data.csv,1,300,68.0,Training at home,,,,,,,,,,,,,
3,8,1713,B,54.46521111146357,32.33305649686349,2.7232605555731784,0.5078864637932503,B,439.8659580037929,Correct,sub_003_day_08_data.csv,1,300,68.0,Training at home,,,,,,,,,,,,,
3,8,1714,A,43.57884448020825,53.81115003182455,2.1789422240104126,0.8452635681059909,B,1301.1182500049472,Incorrect,sub_003_day_08_data.csv,0,300,68.0,Training at home,,,,,,,,,,,,,
3,8,1715,B,62.1525288069848,47.15268538614527,3.10762644034924,0.740672650030724,B,1101.5867499809249,Correct,sub_003_day_08_data.csv,1,300,68.0,Training at home,,,,,,,,,,,,,
3,8,1716,A,42.50321503511161,53.00649337687927,2.1251607517555806,0.8326240509267996,B,660.5905830219854,Incorrect,sub_003_day_08_data.csv,0,300,68.0,Training at home,,,,,,,,,,,,,
3,8,1717,B,41.18483194784841,29.26990328216773,2.0592415973924205,0.4597705656127095,B,506.6876670171041,Correct,sub_003_day_08_data.csv,1,300,68.0,Training at home,,,,,,,,,,,,,
3,8,1718,B,73.02619461401056,57.746572068381994,3.651309730700528,0.907081032900112,B,512.0563329837751,Correct,sub_003_day_08_data.csv,1,300,68.0,Training at home,,,,,,,,,,,,,
3,8,1719,B,51.85802780683052,20.86659783363337,2.592901390341526,0.3277717522977764,B,527.0849160151556,Correct,sub_003_day_08_data.csv,1,300,68.0,Training at home,,,,,,,,,,,,,
3,8,1720,A,51.66501806064033,66.5491525007432,2.5832509030320163,1.0453516429948082,A,704.6754170150962,Correct,sub_003_day_08_data.csv,1,300,68.0,Training at home,,,,,,,,,,,,,
3,8,1721,B,79.38978259498214,48.40578802187369,3.969489129749107,0.7603563402037159,B,777.5405409920495,Correct,sub_003_day_08_data.csv,1,300,68.0,Training at home,,,,,,,,,,,,,
3,8,1722,B,55.51235070724931,40.01550780916554,2.7756175353624655,0.6285621268146974,B,575.5885829858016,Correct,sub_003_day_08_data.csv,1,300,68.0,Training at home,,,,,,,,,,,,,
3,8,1723,A,41.81242659772392,60.89629084031942,2.090621329886196,0.9565566996740744,A,1746.2289159884676,Correct,sub_003_day_08_data.csv,1,300,68.0,Training at home,,,,,,,,,,,,,
3,8,1724,B,58.5897757289754,46.26300250985122,2.9294887864487698,0.7266975440897738,B,529.8769580258522,Correct,sub_003_day_08_data.csv,1,300,68.0,Training at home,,,,,,,,,,,,,
3,8,1725,B,45.06061038009026,17.02808049648925,2.253030519004513,0.2674764629625313,B,1310.3366660070606,Correct,sub_003_day_08_data.csv,1,300,69.0,Training at home,,,,,,,,,,,,,
3,8,1726,A,21.23388198354973,39.72992075321049,1.0616940991774866,0.6240761358299538,A,552.5462079967838,Correct,sub_003_day_08_data.csv,1,300,69.0,Training at home,,,,,,,,,,,,,
3,8,1727,A,32.08338920622028,62.240269659893485,1.6041694603110142,0.9776678696048452,A,511.8952909833752,Correct,sub_003_day_08_data.csv,1,300,69.0,Training at home,,,,,,,,,,,,,
3,8,1728,B,81.42357148469748,61.1758525967136,4.0711785742348745,0.9609480454746374,B,1308.3461660135072,Correct,sub_003_day_08_data.csv,1,300,69.0,Training at home,,,,,,,,,,,,,
3,8,1729,A,37.33810275681499,61.46745226630411,1.8669051378407493,0.9655284823735114,A,545.1593329780735,Correct,sub_003_day_08_data.csv,1,300,69.0,Training at home,,,,,,,,,,,,,
3,8,1730,A,28.09276707021679,43.873442755041545,1.4046383535108395,0.6891624272346543,A,425.42049899930134,Correct,sub_003_day_08_data.csv,1,300,69.0,Training at home,,,,,,,,,,,,,
3,8,1731,A,36.8412861429976,52.099086468235,1.84206430714988,0.8183705365367324,A,993.3404990006238,Correct,sub_003_day_08_data.csv,1,300,69.0,Training at home,,,,,,,,,,,,,
3,8,1732,B,42.903703344941455,26.807772268240175,2.1451851672470728,0.4210955020850576,B,517.7174159907736,Correct,sub_003_day_08_data.csv,1,300,69.0,Training at home,,,,,,,,,,,,,
3,8,1733,B,71.25448097759207,43.06737598394217,3.5627240488796033,0.6765007600027111,B,509.7438330121804,Correct,sub_003_day_08_data.csv,1,300,69.0,Training at home,,,,,,,,,,,,,
3,8,1734,A,21.6940941663716,43.287036564963415,1.08470470831858,0.679951180340809,A,438.49829098326154,Correct,sub_003_day_08_data.csv,1,300,69.0,Training at home,,,,,,,,,,,,,
3,8,1735,B,76.24412396258228,51.95918418291751,3.812206198129114,0.816172956577863,B,458.17283299402334,Correct,sub_003_day_08_data.csv,1,300,69.0,Training at home,,,,,,,,,,,,,
3,8,1736,B,50.45604396892232,26.597073418501424,2.5228021984461155,0.4177858522927622,B,984.5464160025584,Correct,sub_003_day_08_data.csv,1,300,69.0,Training at home,,,,,,,,,,,,,
3,8,1737,B,38.14606292813653,23.160533416666865,1.9073031464068264,0.3638048081751077,B,665.8621249953285,Correct,sub_003_day_08_data.csv,1,300,69.0,Training at home,,,,,,,,,,,,,
3,8,1738,B,70.91929663279518,50.5320133771343,3.545964831639759,0.7937550099835314,B,488.8889169960749,Correct,sub_003_day_08_data.csv,1,300,69.0,Training at home,,,,,,,,,,,,,
3,8,1739,A,18.997814706762163,41.0796551343861,0.9498907353381082,0.645277713910948,A,456.0452500008978,Correct,sub_003_day_08_data.csv,1,300,69.0,Training at home,,,,,,,,,,,,,
3,8,1740,A,53.786734761400936,68.3369473328758,2.6893367380700464,1.073434258548576,B,408.5567490255926,Incorrect,sub_003_day_08_data.csv,0,300,69.0,Training at home,,,,,,,,,,,,,
3,8,1741,A,48.27033507841208,58.86974147056632,2.413516753920604,0.9247237366133078,A,727.5361240026541,Correct,sub_003_day_08_data.csv,1,300,69.0,Training at home,,,,,,,,,,,,,
3,8,1742,A,32.46211364453786,40.92412356425086,1.6231056822268928,0.6428346297202572,A,565.4547500016633,Correct,sub_003_day_08_data.csv,1,300,69.0,Training at home,,,,,,,,,,,,,
3,8,1743,A,12.698511362437756,36.93018628581471,0.6349255681218878,0.5800980096560902,A,489.7625000157859,Correct,sub_003_day_08_data.csv,1,300,69.0,Training at home,,,,,,,,,,,,,
3,8,1744,A,38.160927930539174,51.698965541001535,1.9080463965269587,0.8120854517090115,A,564.487083000131,Correct,sub_003_day_08_data.csv,1,300,69.0,Training at home,,,,,,,,,,,,,
3,8,1745,B,84.12667251235553,67.49383637013139,4.206333625617776,1.060190702514982,B,555.2373740065377,Correct,sub_003_day_08_data.csv,1,300,69.0,Training at home,,,,,,,,,,,,,
3,8,1746,A,35.491121404085774,48.052601632226256,1.7745560702042888,0.7548085013683945,A,637.4574580113403,Correct,sub_003_day_08_data.csv,1,300,69.0,Training at home,,,,,,,,,,,,,
3,8,1747,A,38.899004350384594,48.42143090422378,1.9449502175192297,0.760602058025076,A,569.1147909965366,Correct,sub_003_day_08_data.csv,1,300,69.0,Training at home,,,,,,,,,,,,,
3,8,1748,B,51.663613541275176,42.91363187153991,2.583180677063759,0.6740857531324329,A,1826.4417909958863,Incorrect,sub_003_day_08_data.csv,0,300,69.0,Training at home,,,,,,,,,,,,,
3,8,1749,A,23.865942817269676,53.24641891343818,1.1932971408634838,0.83639279244211,A,947.4596660002136,Correct,sub_003_day_08_data.csv,1,300,69.0,Training at home,,,,,,,,,,,,,
3,8,1750,B,84.1399393492537,57.0713871196874,4.206996967462685,0.8964752525269455,B,606.6967910155654,Correct,sub_003_day_08_data.csv,1,300,70.0,Training at home,,,,,,,,,,,,,
3,8,1751,A,59.875310261112546,74.3526273081699,2.993765513055627,1.167928338632232,A,749.8114170157351,Correct,sub_003_day_08_data.csv,1,300,70.0,Training at home,,,,,,,,,,,,,
3,8,1752,B,41.51950206554815,17.301547431951306,2.0759751032774076,0.2717720715397679,A,739.8391659953631,Incorrect,sub_003_day_08_data.csv,0,300,70.0,Training at home,,,,,,,,,,,,,
3,8,1753,B,80.0410127961873,58.038299982441565,4.002050639809365,0.9116634842583952,B,549.8779579938855,Correct,sub_003_day_08_data.csv,1,300,70.0,Training at home,,,,,,,,,,,,,
3,8,1754,A,43.390205468970514,61.53008745552468,2.169510273448526,0.9665123536250692,A,755.4996660037432,Correct,sub_003_day_08_data.csv,1,300,70.0,Training at home,,,,,,,,,,,,,
3,8,1755,A,52.54094584663392,80.13026485232182,2.627047292331696,1.258683256951293,A,661.079499986954,Correct,sub_003_day_08_data.csv,1,300,70.0,Training at home,,,,,,,,,,,,,
3,8,1756,B,45.84978457785243,20.454650421068266,2.2924892288926215,0.3213008974728771,B,1493.7783750065137,Correct,sub_003_day_08_data.csv,1,300,70.0,Training at home,,,,,,,,,,,,,
3,8,1757,B,59.32644951179037,44.57678225337362,2.966322475589519,0.7002104582393522,A,1190.964832989266,Incorrect,sub_003_day_08_data.csv,0,300,70.0,Training at home,,,,,,,,,,,,,
3,8,1758,A,12.309764489892178,38.02210379102531,0.6154882244946088,0.5972498097195686,A,549.432917003287,Correct,sub_003_day_08_data.csv,1,300,70.0,Training at home,,,,,,,,,,,,,
3,8,1759,B,85.39028045418748,62.77140375574824,4.269514022709374,0.9860109044728872,B,616.1589580005966,Correct,sub_003_day_08_data.csv,1,300,70.0,Training at home,,,,,,,,,,,,,
3,8,1760,B,34.49814183644959,15.107625342758643,1.7249070918224794,0.2373100239499877,A,861.3638329843525,Incorrect,sub_003_day_08_data.csv,0,300,70.0,Training at home,,,,,,,,,,,,,
3,8,1761,B,82.75693131516437,56.27088460884383,4.137846565758219,0.8839009884907137,B,1199.0576239768416,Correct,sub_003_day_08_data.csv,1,300,70.0,Training at home,,,,,,,,,,,,,
3,8,1762,A,27.188003837777195,42.689122831809826,1.3594001918888596,0.6705591733830303,A,517.2767910116818,Correct,sub_003_day_08_data.csv,1,300,70.0,Training at home,,,,,,,,,,,,,
3,8,1763,B,66.07226231437522,46.42537108857964,3.303613115718761,0.7292480237603088,B,424.9924579926301,Correct,sub_003_day_08_data.csv,1,300,70.0,Training at home,,,,,,,,,,,,,
3,8,1764,A,16.364333687891232,38.524289522840334,0.8182166843945616,0.6051381247486071,A,586.131000018213,Correct,sub_003_day_08_data.csv,1,300,70.0,Training at home,,,,,,,,,,,,,
3,8,1765,B,66.23375858474667,43.900274088835715,3.3116879292373333,0.6895838928403231,B,406.7313749983441,Correct,sub_003_day_08_data.csv,1,300,70.0,Training at home,,,,,,,,,,,,,
3,8,1766,A,60.59903631131084,77.07064864738427,3.029951815565542,1.210622917990113,A,569.9889989919029,Correct,sub_003_day_08_data.csv,1,300,70.0,Training at home,,,,,,,,,,,,,
3,8,1767,A,17.537544380041496,47.97766592723515,0.8768772190020748,0.7536314140669365,A,596.5440830041189,Correct,sub_003_day_08_data.csv,1,300,70.0,Training at home,,,,,,,,,,,,,
3,8,1768,B,51.455080965000676,22.99451771934954,2.5727540482500335,0.3611970396997441,B,519.9226250115316,Correct,sub_003_day_08_data.csv,1,300,70.0,Training at home,,,,,,,,,,,,,
3,8,1769,A,37.66412362096798,61.11104901267226,1.8832061810483989,0.9599301131568848,A,484.01491600088775,Correct,sub_003_day_08_data.csv,1,300,70.0,Training at home,,,,,,,,,,,,,
3,8,1770,A,39.403636721972155,55.21837991262809,1.970181836098608,0.867368283383213,A,611.5394580119755,Correct,sub_003_day_08_data.csv,1,300,70.0,Training at home,,,,,,,,,,,,,
3,8,1771,A,17.056198541920224,34.00380069233994,0.8528099270960112,0.5341304522459334,A,444.63874999200925,Correct,sub_003_day_08_data.csv,1,300,70.0,Training at home,,,,,,,,,,,,,
3,8,1772,A,41.243244291758856,56.082414040242675,2.062162214587943,0.8809404997220374,A,1009.6722499874886,Correct,sub_003_day_08_data.csv,1,300,70.0,Training at home,,,,,,,,,,,,,
3,8,1773,B,74.71161539869179,57.407588261683735,3.7355807699345895,0.9017562877160664,A,1008.1658750132192,Incorrect,sub_003_day_08_data.csv,0,300,70.0,Training at home,,,,,,,,,,,,,
3,8,1774,B,63.94699780011724,54.69944857805608,3.197349890005862,0.8592169290411682,B,842.7282499906141,Correct,sub_003_day_08_data.csv,1,300,70.0,Training at home,,,,,,,,,,,,,
3,8,1775,B,44.66421312243794,19.354593018911032,2.2332106561218974,0.3040212362071559,A,626.6620420210529,Incorrect,sub_003_day_08_data.csv,0,300,71.0,Training at home,,,,,,,,,,,,,
3,8,1776,A,43.05033518562513,73.38478499004452,2.1525167592812564,1.152725507049952,A,528.6586250003893,Correct,sub_003_day_08_data.csv,1,300,71.0,Training at home,,,,,,,,,,,,,
3,8,1777,A,60.49189306516872,84.38807774638464,3.024594653258436,1.3255648254930317,A,743.0361669976264,Correct,sub_003_day_08_data.csv,1,300,71.0,Training at home,,,,,,,,,,,,,
3,8,1778,B,53.022140209617895,27.093205677377437,2.651107010480895,0.4255790795912311,B,1000.7223749998956,Correct,sub_003_day_08_data.csv,1,300,71.0,Training at home,,,,,,,,,,,,,
3,8,1779,A,36.08151976410839,47.919031923389,1.80407598820542,0.7527103932882683,A,1156.351249985164,Correct,sub_003_day_08_data.csv,1,300,71.0,Training at home,,,,,,,,,,,,,
3,8,1780,A,59.229522558455216,68.27005740542026,2.9614761279227606,1.0723835540251088,A,609.4917500158772,Correct,sub_003_day_08_data.csv,1,300,71.0,Training at home,,,,,,,,,,,,,
3,8,1781,A,16.529673830088623,36.79491460205286,0.8264836915044311,0.5779731670163655,A,448.7402920203749,Correct,sub_003_day_08_data.csv,1,300,71.0,Training at home,,,,,,,,,,,,,
3,8,1782,B,43.62985449802469,31.62003698647604,2.1814927249012346,0.4966863795147534,B,718.8439159945119,Correct,sub_003_day_08_data.csv,1,300,71.0,Training at home,,,,,,,,,,,,,
3,8,1783,A,23.667234076331695,51.72562789042006,1.183361703816585,0.8125042629143148,A,560.0583330087829,Correct,sub_003_day_08_data.csv,1,300,71.0,Training at home,,,,,,,,,,,,,
3,8,1784,B,54.585445610031904,23.54158067192331,2.729272280501595,0.3697902844640286,B,624.733749020379,Correct,sub_003_day_08_data.csv,1,300,71.0,Training at home,,,,,,,,,,,,,
3,8,1785,B,75.51394791671873,58.7747542438333,3.775697395835937,0.9232316807448612,B,494.5533749996685,Correct,sub_003_day_08_data.csv,1,300,71.0,Training at home,,,,,,,,,,,,,
3,8,1786,A,15.956689333970758,44.04028129300561,0.7978344666985379,0.6917831208606721,A,566.7459160031285,Correct,sub_003_day_08_data.csv,1,300,71.0,Training at home,,,,,,,,,,,,,
3,8,1787,B,66.80006066349041,46.40009488108592,3.3400030331745203,0.7288509860214444,B,761.7721669957973,Correct,sub_003_day_08_data.csv,1,300,71.0,Training at home,,,,,,,,,,,,,
3,8,1788,B,74.21158304549768,57.76780943683498,3.710579152274883,0.9074146287036796,B,658.8009580154903,Correct,sub_003_day_08_data.csv,1,300,71.0,Training at home,,,,,,,,,,,,,
3,8,1789,A,52.587504839586,64.88865782759298,2.6293752419793,1.0192686536623397,B,567.716040997766,Incorrect,sub_003_day_08_data.csv,0,300,71.0,Training at home,,,,,,,,,,,,,
3,8,1790,B,74.58568637028552,46.28575236904726,3.729284318514276,0.7270548980423762,B,862.5617919897195,Correct,sub_003_day_08_data.csv,1,300,71.0,Training at home,,,,,,,,,,,,,
3,8,1791,A,18.49768143354482,41.61170773930097,0.924884071677241,0.6536351766855673,A,573.7237080174964,Correct,sub_003_day_08_data.csv,1,300,71.0,Training at home,,,,,,,,,,,,,
3,8,1792,B,58.89089926574205,50.42657152276138,2.9445449632871026,0.7920987332081371,B,578.3941670088097,Correct,sub_003_day_08_data.csv,1,300,71.0,Training at home,,,,,,,,,,,,,
3,8,1793,A,49.81893795599392,77.4309928224269,2.490946897799696,1.216283191055502,A,661.1456250248011,Correct,sub_003_day_08_data.csv,1,300,71.0,Training at home,,,,,,,,,,,,,
3,8,1794,A,31.646625515464997,41.27728704116879,1.5823312757732495,0.6483821086432653,A,722.6992500072811,Correct,sub_003_day_08_data.csv,1,300,71.0,Training at home,,,,,,,,,,,,,
3,8,1795,A,59.89079602364544,78.87258630054248,2.9945398011822717,1.238927688457056,A,557.6456240087282,Correct,sub_003_day_08_data.csv,1,300,71.0,Training at home,,,,,,,,,,,,,
3,8,1796,B,82.98881382531331,61.6317991871423,4.149440691265665,0.968110037769238,B,911.5317499963568,Correct,sub_003_day_08_data.csv,1,300,71.0,Training at home,,,,,,,,,,,,,
3,8,1797,A,14.486533304270122,43.83187560803479,0.7243266652135061,0.6885094920163187,A,765.589207992889,Correct,sub_003_day_08_data.csv,1,300,71.0,Training at home,,,,,,,,,,,,,
3,8,1798,B,42.97612665640881,25.628201345120075,2.1488063328204405,0.4025668453527464,A,1178.152874985244,Incorrect,sub_003_day_08_data.csv,0,300,71.0,Training at home,,,,,,,,,,,,,
3,8,1799,A,46.404111031271434,76.74804076880494,2.320205551563572,1.205555405283438,A,484.91833300795406,Correct,sub_003_day_08_data.csv,1,300,71.0,Training at home,,,,,,,,,,,,,
