subject,day,trial,cat,x,y,xt,yt,resp,rt,fb,f_name,acc,n_trials,block,session_type,ns_left_digit,ns_right_digit,ns_left_size,ns_right_size,ns_congruent,ns_cue,ns_correct_side,ns_resp,ns_rt,ns_fb,acc_stroop,acc_stroop_mean,resp_key
3,3,300,A,64.66493504361418,82.80660918413977,3.2332467521807087,1.300723175407873,A,2626.9296659993415,Correct,sub_003_day_03_data.csv,1,300,12.0,Training at home,,,,,,,,,,,,,
3,3,301,A,20.519576564934372,32.61987211003027,1.0259788282467186,0.5123917529095484,A,528.7417910003569,Correct,sub_003_day_03_data.csv,1,300,12.0,Training at home,,,,,,,,,,,,,
3,3,302,B,59.065645932827096,32.93091630437172,2.953282296641355,0.5172776236889726,B,1273.3620409999276,Correct,sub_003_day_03_data.csv,1,300,12.0,Training at home,,,,,,,,,,,,,
3,3,303,A,47.60447294595848,75.75380993320331,2.380223647297924,1.189938063837945,A,733.6707069989643,Correct,sub_003_day_03_data.csv,1,300,12.0,Training at home,,,,,,,,,,,,,
3,3,304,B,47.594424420573944,19.22890935701721,2.379721221028697,0.3020470018627464,B,996.4167910002288,Correct,sub_003_day_03_data.csv,1,300,12.0,Training at home,,,,,,,,,,,,,
3,3,305,B,89.62113574601912,65.19535889109302,4.481056787300957,1.024086302702039,B,795.3324160007469,Correct,sub_003_day_03_data.csv,1,300,12.0,Training at home,,,,,,,,,,,,,
3,3,306,B,41.87982615025818,26.850788015829785,2.093991307512909,0.4217711918681386,A,714.5170830008283,Incorrect,sub_003_day_03_data.csv,0,300,12.0,Training at home,,,,,,,,,,,,,
3,3,307,B,63.42597439256484,35.716658698657675,3.171298719628242,0.5610359628923847,B,750.8847499993863,Correct,sub_003_day_03_data.csv,1,300,12.0,Training at home,,,,,,,,,,,,,
3,3,308,B,87.5203631768533,64.27239016026122,4.3760181588426645,1.009588343780668,B,522.3550410009921,Correct,sub_003_day_03_data.csv,1,300,12.0,Training at home,,,,,,,,,,,,,
3,3,309,B,45.1401990102032,20.89553011795359,2.25700995051016,0.3282262195571362,B,762.9487489975872,Correct,sub_003_day_03_data.csv,1,300,12.0,Training at home,,,,,,,,,,,,,
3,3,310,B,54.151262769696125,43.00296767171767,2.7075631384848062,0.675489036600138,B,541.7413739996846,Correct,sub_003_day_03_data.csv,1,300,12.0,Training at home,,,,,,,,,,,,,
3,3,311,B,67.48820856370814,50.458053125514965,3.3744104281854073,0.7925932450678066,B,550.2265409995744,Correct,sub_003_day_03_data.csv,1,300,12.0,Training at home,,,,,,,,,,,,,
3,3,312,B,71.73013476083234,55.62766909306816,3.586506738041617,0.8737973827955346,B,480.5260410030314,Correct,sub_003_day_03_data.csv,1,300,12.0,Training at home,,,,,,,,,,,,,
3,3,313,A,45.153050698241564,71.55098570552119,2.2576525349120784,1.1239202552478684,B,1492.2180409994326,Incorrect,sub_003_day_03_data.csv,0,300,12.0,Training at home,,,,,,,,,,,,,
3,3,314,B,52.09230598460062,27.92403604560463,2.6046152992300313,0.4386297324972404,B,1099.0844580010162,Correct,sub_003_day_03_data.csv,1,300,12.0,Training at home,,,,,,,,,,,,,
3,3,315,A,20.312370736404077,51.39130886769924,1.0156185368202038,0.8072527919856395,A,498.1867489987053,Correct,sub_003_day_03_data.csv,1,300,12.0,Training at home,,,,,,,,,,,,,
3,3,316,A,28.060733441760306,40.69974799388804,1.4030366720880152,0.639310146502773,A,495.806374001404,Correct,sub_003_day_03_data.csv,1,300,12.0,Training at home,,,,,,,,,,,,,
3,3,317,B,32.26132463672017,19.733935040030783,1.6130662318360085,0.3099799267408945,A,1004.8329160017602,Incorrect,sub_003_day_03_data.csv,0,300,12.0,Training at home,,,,,,,,,,,,,
3,3,318,B,77.89273649237415,48.59494415542802,3.894636824618708,0.7633275978014945,B,413.4150829995633,Correct,sub_003_day_03_data.csv,1,300,12.0,Training at home,,,,,,,,,,,,,
3,3,319,B,60.5695910364981,52.30625987905718,3.0284795518249052,0.8216248088640229,B,1497.3970409992037,Correct,sub_003_day_03_data.csv,1,300,12.0,Training at home,,,,,,,,,,,,,
3,3,320,B,71.3332680354922,46.3346106027149,3.56666340177461,0.7278223613821644,B,512.2300409966556,Correct,sub_003_day_03_data.csv,1,300,12.0,Training at home,,,,,,,,,,,,,
3,3,321,B,53.07856105932346,24.521215063578857,2.6539280529661733,0.3851783455041735,B,760.8460000010382,Correct,sub_003_day_03_data.csv,1,300,12.0,Training at home,,,,,,,,,,,,,
3,3,322,B,45.893526182793465,35.27347139516862,2.294676309139674,0.5540743930083571,A,741.8462909990922,Incorrect,sub_003_day_03_data.csv,0,300,12.0,Training at home,,,,,,,,,,,,,
3,3,323,A,18.248151688488413,48.48702424114993,0.9124075844244206,0.7616323957521343,A,537.6345410004433,Correct,sub_003_day_03_data.csv,1,300,12.0,Training at home,,,,,,,,,,,,,
3,3,324,B,61.254240438013184,49.60508695864597,3.0627120219006594,0.779194883849825,B,482.2956240022904,Correct,sub_003_day_03_data.csv,1,300,12.0,Training at home,,,,,,,,,,,,,
3,3,325,B,56.2589847191611,35.67276431932287,2.8129492359580546,0.5603464715941242,B,467.05899899825454,Correct,sub_003_day_03_data.csv,1,300,13.0,Training at home,,,,,,,,,,,,,
3,3,326,A,22.01474206961198,41.21260367198602,1.100737103480599,0.647366064656095,A,572.6331240002764,Correct,sub_003_day_03_data.csv,1,300,13.0,Training at home,,,,,,,,,,,,,
3,3,327,B,77.51801462090971,49.842875499411264,3.875900731045485,0.7829300575137056,B,507.0125829988683,Correct,sub_003_day_03_data.csv,1,300,13.0,Training at home,,,,,,,,,,,,,
3,3,328,B,38.03374877281911,22.31811130745068,1.9016874386409557,0.3505720726274317,A,552.4854159993993,Incorrect,sub_003_day_03_data.csv,0,300,13.0,Training at home,,,,,,,,,,,,,
3,3,329,B,59.50969815421142,27.572354834480667,2.9754849077105714,0.4331055369508774,B,527.8451249978389,Correct,sub_003_day_03_data.csv,1,300,13.0,Training at home,,,,,,,,,,,,,
3,3,330,A,48.06141661828244,62.72355607481173,2.403070830914122,0.9852593148582798,A,628.8644160013064,Correct,sub_003_day_03_data.csv,1,300,13.0,Training at home,,,,,,,,,,,,,
3,3,331,B,39.47822769375378,28.802414309804096,1.973911384687689,0.4524272660066503,A,703.8849580021633,Incorrect,sub_003_day_03_data.csv,0,300,13.0,Training at home,,,,,,,,,,,,,
3,3,332,B,58.65780656642956,45.525573574868496,2.9328903283214776,0.7151140374663424,B,528.6137910006801,Correct,sub_003_day_03_data.csv,1,300,13.0,Training at home,,,,,,,,,,,,,
3,3,333,A,65.74521504131698,77.22155362420912,3.2872607520658494,1.2129933278230285,A,932.228623998526,Correct,sub_003_day_03_data.csv,1,300,13.0,Training at home,,,,,,,,,,,,,
3,3,334,B,73.7598406744697,58.64603882552646,3.6879920337234857,0.9212098236820784,B,645.9095819991489,Correct,sub_003_day_03_data.csv,1,300,13.0,Training at home,,,,,,,,,,,,,
3,3,335,B,74.36380293157518,47.62008948102174,3.718190146578759,0.7480146163843325,B,537.0031660022505,Correct,sub_003_day_03_data.csv,1,300,13.0,Training at home,,,,,,,,,,,,,
3,3,336,A,56.84992185091948,67.99403020412436,2.8424960925459737,1.0680477288861978,B,690.9106240018446,Incorrect,sub_003_day_03_data.csv,0,300,13.0,Training at home,,,,,,,,,,,,,
3,3,337,A,34.796995886925444,62.70284751255812,1.7398497943462723,0.9849340255230682,A,670.6276660006552,Correct,sub_003_day_03_data.csv,1,300,13.0,Training at home,,,,,,,,,,,,,
3,3,338,A,47.74233155216198,67.51684070538086,2.387116577608099,1.060552053768084,A,1094.2366239978585,Correct,sub_003_day_03_data.csv,1,300,13.0,Training at home,,,,,,,,,,,,,
3,3,339,B,54.45464461495611,30.77316070277464,2.7227322307478055,0.4833836779578745,B,3310.203832003026,Correct,sub_003_day_03_data.csv,1,300,13.0,Training at home,,,,,,,,,,,,,
3,3,340,A,27.330419487798547,42.6126826920312,1.3665209743899274,0.6693584544751907,A,501.5186239979812,Correct,sub_003_day_03_data.csv,1,300,13.0,Training at home,,,,,,,,,,,,,
3,3,341,A,44.91471144248105,67.5577257756517,2.245735572124053,1.061194274950106,A,2350.101458003337,Correct,sub_003_day_03_data.csv,1,300,13.0,Training at home,,,,,,,,,,,,,
3,3,342,A,48.84940090772684,73.64151809523477,2.442470045386342,1.1567582612359468,B,2411.60224900159,Incorrect,sub_003_day_03_data.csv,0,300,13.0,Training at home,,,,,,,,,,,,,
3,3,343,A,31.67523035277009,49.6568414719167,1.5837615176385045,0.7800078418432322,A,572.694999002124,Correct,sub_003_day_03_data.csv,1,300,13.0,Training at home,,,,,,,,,,,,,
3,3,344,B,66.74726888581672,40.78319984861819,3.337363444290836,0.6406210051715162,B,672.6729580004758,Correct,sub_003_day_03_data.csv,1,300,13.0,Training at home,,,,,,,,,,,,,
3,3,345,A,61.61509682475675,83.83664426688053,3.0807548412378374,1.3169029286522635,A,753.2852909971552,Correct,sub_003_day_03_data.csv,1,300,13.0,Training at home,,,,,,,,,,,,,
3,3,346,B,34.07974341805701,20.168967825728995,1.7039871709028502,0.3168134057589956,A,1107.699873999081,Incorrect,sub_003_day_03_data.csv,0,300,13.0,Training at home,,,,,,,,,,,,,
3,3,347,A,50.8277375466221,78.4524255988333,2.5413868773311052,1.2323278195879726,A,1712.8840410005068,Correct,sub_003_day_03_data.csv,1,300,13.0,Training at home,,,,,,,,,,,,,
3,3,348,A,12.11155822062618,38.20170589606879,0.605577911031309,0.600070992988438,A,795.8857500016165,Correct,sub_003_day_03_data.csv,1,300,13.0,Training at home,,,,,,,,,,,,,
3,3,349,B,47.66073377990407,32.061235062576024,2.3830366889952033,0.5036167026880216,B,1693.5969580008532,Correct,sub_003_day_03_data.csv,1,300,13.0,Training at home,,,,,,,,,,,,,
3,3,350,B,60.18828823117549,48.26766593079596,3.009414411558774,0.7581867234705746,B,556.7569989980257,Correct,sub_003_day_03_data.csv,1,300,14.0,Training at home,,,,,,,,,,,,,
3,3,351,B,81.3216717333526,60.36544572382827,4.06608358666763,0.9482182040832612,B,439.1511659996467,Correct,sub_003_day_03_data.csv,1,300,14.0,Training at home,,,,,,,,,,,,,
3,3,352,A,21.073454151997677,50.03294242726012,1.053672707599884,0.7859156218348073,A,554.7422909985471,Correct,sub_003_day_03_data.csv,1,300,14.0,Training at home,,,,,,,,,,,,,
3,3,353,A,19.333346055279964,42.521152974257795,0.966667302763998,0.6679207090304805,A,517.2371240005305,Correct,sub_003_day_03_data.csv,1,300,14.0,Training at home,,,,,,,,,,,,,
3,3,354,B,67.53338188394908,38.45284442477024,3.3766690941974535,0.6040158677724471,B,459.33929099919624,Correct,sub_003_day_03_data.csv,1,300,14.0,Training at home,,,,,,,,,,,,,
3,3,355,A,34.17495928220965,56.254455396142845,1.7087479641104824,0.8836429190210854,A,639.0561660009553,Correct,sub_003_day_03_data.csv,1,300,14.0,Training at home,,,,,,,,,,,,,
3,3,356,A,18.08522559719593,32.30515163873183,0.9042612798597964,0.5074481353067208,A,464.31029100131127,Correct,sub_003_day_03_data.csv,1,300,14.0,Training at home,,,,,,,,,,,,,
3,3,357,B,72.31755502952527,51.12488449451679,3.6158777514762632,0.8030678077180033,B,509.4992909980647,Correct,sub_003_day_03_data.csv,1,300,14.0,Training at home,,,,,,,,,,,,,
3,3,358,B,43.81975224452649,30.81010569692408,2.1909876122263245,0.4839640085689086,A,1203.8612910000666,Incorrect,sub_003_day_03_data.csv,0,300,14.0,Training at home,,,,,,,,,,,,,
3,3,359,A,46.75206803188533,77.04526961984212,2.3376034015942664,1.2102242651577044,A,1419.0729160000046,Correct,sub_003_day_03_data.csv,1,300,14.0,Training at home,,,,,,,,,,,,,
3,3,360,B,67.39816076367882,41.1786835625723,3.3699080381839406,0.6468332488233797,B,1022.2951240029944,Correct,sub_003_day_03_data.csv,1,300,14.0,Training at home,,,,,,,,,,,,,
3,3,361,B,57.32753193914272,27.35541026725802,2.866376596957136,0.4296977796577629,B,505.7745820013224,Correct,sub_003_day_03_data.csv,1,300,14.0,Training at home,,,,,,,,,,,,,
3,3,362,B,61.23973683980233,36.29443323211732,3.061986841990117,0.5701116240411251,B,608.5681240001577,Correct,sub_003_day_03_data.csv,1,300,14.0,Training at home,,,,,,,,,,,,,
3,3,363,B,54.78699589604616,46.80059254175205,2.739349794802308,0.7351419885640875,B,895.0780410013977,Correct,sub_003_day_03_data.csv,1,300,14.0,Training at home,,,,,,,,,,,,,
3,3,364,B,74.58612935242394,64.45517168916707,3.729306467621197,1.0124594693227806,B,1278.1257490023563,Correct,sub_003_day_03_data.csv,1,300,14.0,Training at home,,,,,,,,,,,,,
3,3,365,A,53.9728404661914,61.15813856547064,2.6986420233095703,0.9606697941225458,B,1453.7486660010472,Incorrect,sub_003_day_03_data.csv,0,300,14.0,Training at home,,,,,,,,,,,,,
3,3,366,A,34.902962152954906,55.82986892338607,1.7451481076477453,0.8769735303029538,A,438.65883300168207,Correct,sub_003_day_03_data.csv,1,300,14.0,Training at home,,,,,,,,,,,,,
3,3,367,A,61.5865572576067,71.83265275238166,3.0793278628803353,1.1283446708737446,B,1081.5098740022222,Incorrect,sub_003_day_03_data.csv,0,300,14.0,Training at home,,,,,,,,,,,,,
3,3,368,B,37.64106920505316,18.3072872826884,1.8820534602526575,0.2875701961722586,A,1091.987331998098,Incorrect,sub_003_day_03_data.csv,0,300,14.0,Training at home,,,,,,,,,,,,,
3,3,369,A,32.894450412056756,53.81479484948256,1.6447225206028375,0.8453208207678812,A,1453.9212910021888,Correct,sub_003_day_03_data.csv,1,300,14.0,Training at home,,,,,,,,,,,,,
3,3,370,A,37.75067630311617,71.0030116419112,1.8875338151558083,1.115312698784894,A,1017.0352499990258,Correct,sub_003_day_03_data.csv,1,300,14.0,Training at home,,,,,,,,,,,,,
3,3,371,A,63.23664375286966,84.36781757148746,3.161832187643483,1.3252465794099444,B,419.6746249981515,Incorrect,sub_003_day_03_data.csv,0,300,14.0,Training at home,,,,,,,,,,,,,
3,3,372,A,36.07463561315219,58.13009232409063,1.8037317806576096,0.9131053549892978,A,1947.1457910003664,Correct,sub_003_day_03_data.csv,1,300,14.0,Training at home,,,,,,,,,,,,,
3,3,373,B,76.25076185365133,62.01923599425622,3.8125380926825665,0.9741958809040352,B,1693.1318320021091,Correct,sub_003_day_03_data.csv,1,300,14.0,Training at home,,,,,,,,,,,,,
3,3,374,B,67.02063299416261,46.63422750025632,3.3510316497081307,0.7325287326032017,B,531.805416001589,Correct,sub_003_day_03_data.csv,1,300,14.0,Training at home,,,,,,,,,,,,,
3,3,375,B,83.17499544298673,57.750022647245984,4.158749772149337,0.9071352344661608,B,709.1507069999352,Correct,sub_003_day_03_data.csv,1,300,15.0,Training at home,,,,,,,,,,,,,
3,3,376,A,15.12906684691469,44.59327813875922,0.7564533423457346,0.7004695750010614,A,558.0445410014363,Correct,sub_003_day_03_data.csv,1,300,15.0,Training at home,,,,,,,,,,,,,
3,3,377,B,79.86043267601949,48.09596601471788,3.9930216338009745,0.7554896674957103,B,534.8818320017017,Correct,sub_003_day_03_data.csv,1,300,15.0,Training at home,,,,,,,,,,,,,
3,3,378,B,50.9754768927225,37.85373742936344,2.5487738446361248,0.5946051170950258,B,567.8792079997947,Correct,sub_003_day_03_data.csv,1,300,15.0,Training at home,,,,,,,,,,,,,
3,3,379,B,60.89174556005986,29.53995211053264,3.044587278002993,0.4640124826892182,B,498.4703320005792,Correct,sub_003_day_03_data.csv,1,300,15.0,Training at home,,,,,,,,,,,,,
3,3,380,B,74.13054327237609,58.77159166078381,3.706527163618804,0.923182003006488,B,497.4584160008817,Correct,sub_003_day_03_data.csv,1,300,15.0,Training at home,,,,,,,,,,,,,
3,3,381,A,46.639507093803495,55.914135230966814,2.331975354690175,0.8782971823671578,B,929.6136240009218,Incorrect,sub_003_day_03_data.csv,0,300,15.0,Training at home,,,,,,,,,,,,,
3,3,382,B,54.73303786650936,37.013621690182646,2.736651893325468,0.5814086099231482,B,809.9620830034837,Correct,sub_003_day_03_data.csv,1,300,15.0,Training at home,,,,,,,,,,,,,
3,3,383,B,56.29581346206966,42.64651426231892,2.814790673103482,0.6698898795385672,B,506.53008299923385,Correct,sub_003_day_03_data.csv,1,300,15.0,Training at home,,,,,,,,,,,,,
3,3,384,A,62.33861028422671,76.26769597048006,3.1169305142113353,1.1980101668354,A,1573.8583319980537,Correct,sub_003_day_03_data.csv,1,300,15.0,Training at home,,,,,,,,,,,,,
3,3,385,A,42.26803598746761,71.42177852829312,2.1134017993733805,1.1218906736540146,A,1153.2703330012737,Correct,sub_003_day_03_data.csv,1,300,15.0,Training at home,,,,,,,,,,,,,
3,3,386,B,74.83963014334365,53.00447406848029,3.7419815071671825,0.8325923317046419,B,650.230790997739,Correct,sub_003_day_03_data.csv,1,300,15.0,Training at home,,,,,,,,,,,,,
3,3,387,B,67.35809972964744,45.837366192599006,3.367904986482372,0.7200116644528709,B,523.4073740029999,Correct,sub_003_day_03_data.csv,1,300,15.0,Training at home,,,,,,,,,,,,,
3,3,388,B,65.50622755826369,36.97647395847263,3.275311377913184,0.5808250947179596,B,437.33274999976857,Correct,sub_003_day_03_data.csv,1,300,15.0,Training at home,,,,,,,,,,,,,
3,3,389,B,70.86623533387288,46.43703000658894,3.543311766693644,0.7294311616161431,B,501.4248330007831,Correct,sub_003_day_03_data.csv,1,300,15.0,Training at home,,,,,,,,,,,,,
3,3,390,B,64.43306905891953,48.75923706870761,3.221653452945976,0.7659083048484749,B,870.1410409994423,Correct,sub_003_day_03_data.csv,1,300,15.0,Training at home,,,,,,,,,,,,,
3,3,391,A,60.71472873200021,85.11341535266956,3.0357364366000104,1.3369584019694172,A,812.0455830030551,Correct,sub_003_day_03_data.csv,1,300,15.0,Training at home,,,,,,,,,,,,,
3,3,392,A,42.64472943009997,51.11188937097414,2.1322364715049984,0.802863680794733,A,746.7244580002443,Correct,sub_003_day_03_data.csv,1,300,15.0,Training at home,,,,,,,,,,,,,
3,3,393,B,55.951352654314555,30.131774204001523,2.7975676327157277,0.473308802394588,B,1105.556665999757,Correct,sub_003_day_03_data.csv,1,300,15.0,Training at home,,,,,,,,,,,,,
3,3,394,A,22.92049789684132,37.012410355477414,1.146024894842066,0.5813895823220931,A,795.039665998047,Correct,sub_003_day_03_data.csv,1,300,15.0,Training at home,,,,,,,,,,,,,
3,3,395,A,20.263385994122096,35.55828447969171,1.0131692997061048,0.5585482264782772,A,642.4362910001946,Correct,sub_003_day_03_data.csv,1,300,15.0,Training at home,,,,,,,,,,,,,
3,3,396,B,72.46973117514842,57.52671352887804,3.623486558757421,0.903627503037439,B,525.9265410022635,Correct,sub_003_day_03_data.csv,1,300,15.0,Training at home,,,,,,,,,,,,,
3,3,397,B,45.031090461617104,17.345725618707906,2.251554523080855,0.2724660208745851,A,503.67720799840754,Incorrect,sub_003_day_03_data.csv,0,300,15.0,Training at home,,,,,,,,,,,,,
3,3,398,B,51.00292151816885,40.64253424284435,2.5501460759084424,0.6384114350029572,B,500.0479990012536,Correct,sub_003_day_03_data.csv,1,300,15.0,Training at home,,,,,,,,,,,,,
3,3,399,A,14.11998146917239,39.325574277944646,0.7059990734586195,0.6177246762489532,A,508.3132079998904,Correct,sub_003_day_03_data.csv,1,300,15.0,Training at home,,,,,,,,,,,,,
3,3,400,A,62.97541774587217,85.48846314771399,3.1487708872936087,1.3428496389577,A,854.3142910020833,Correct,sub_003_day_03_data.csv,1,300,16.0,Training at home,,,,,,,,,,,,,
3,3,401,A,23.48522020613746,34.97203407544871,1.174261010306873,0.5493394266626078,A,425.6796240006224,Correct,sub_003_day_03_data.csv,1,300,16.0,Training at home,,,,,,,,,,,,,
3,3,402,B,44.955855463248,24.816817650318544,2.2477927731624,0.3898216600785912,A,741.0505410007318,Incorrect,sub_003_day_03_data.csv,0,300,16.0,Training at home,,,,,,,,,,,,,
3,3,403,A,24.168801551598833,47.125150663946094,1.2084400775799415,0.740240135625826,A,546.4854159981769,Correct,sub_003_day_03_data.csv,1,300,16.0,Training at home,,,,,,,,,,,,,
3,3,404,B,56.15719899832517,47.75302675163059,2.807859949916258,0.7501027901479976,A,1073.9952500007348,Incorrect,sub_003_day_03_data.csv,0,300,16.0,Training at home,,,,,,,,,,,,,
3,3,405,A,21.59043067818424,33.95633760214554,1.079521533909212,0.5333849037685764,A,943.0500829985248,Correct,sub_003_day_03_data.csv,1,300,16.0,Training at home,,,,,,,,,,,,,
3,3,406,B,83.18374444554122,63.38452634098219,4.159187222277061,0.995641811520492,B,868.279333000828,Correct,sub_003_day_03_data.csv,1,300,16.0,Training at home,,,,,,,,,,,,,
3,3,407,A,53.87224737234872,67.19014363955971,2.6936123686174365,1.0554203082584186,B,733.6204159983026,Incorrect,sub_003_day_03_data.csv,0,300,16.0,Training at home,,,,,,,,,,,,,
3,3,408,A,24.731358241447545,38.96588276377034,1.2365679120723772,0.6120746551565103,A,1032.788207998237,Correct,sub_003_day_03_data.csv,1,300,16.0,Training at home,,,,,,,,,,,,,
3,3,409,A,44.10946736514806,52.70815475452341,2.2054733682574033,0.8279377588054234,B,529.0354999997362,Incorrect,sub_003_day_03_data.csv,0,300,16.0,Training at home,,,,,,,,,,,,,
3,3,410,A,62.87277182419,82.21267080662678,3.1436385912095,1.2913936131904735,A,1423.9370830000553,Correct,sub_003_day_03_data.csv,1,300,16.0,Training at home,,,,,,,,,,,,,
3,3,411,A,14.129516912648045,40.37434484955379,0.7064758456324022,0.6341987258642955,A,896.5122080007859,Correct,sub_003_day_03_data.csv,1,300,16.0,Training at home,,,,,,,,,,,,,
3,3,412,A,62.887644950789976,85.99464199503046,3.144382247539499,1.35080067769836,A,1467.4118739967523,Correct,sub_003_day_03_data.csv,1,300,16.0,Training at home,,,,,,,,,,,,,
3,3,413,A,51.72482830218081,74.71922851931993,2.5862414151090407,1.1736868969909622,B,1075.0694160014973,Incorrect,sub_003_day_03_data.csv,0,300,16.0,Training at home,,,,,,,,,,,,,
3,3,414,A,66.46518975738331,81.08157832969981,3.3232594878691657,1.273626454110251,B,2625.998708001134,Incorrect,sub_003_day_03_data.csv,0,300,16.0,Training at home,,,,,,,,,,,,,
3,3,415,A,28.06630240388588,57.29684460066496,1.403315120194294,0.9000167303566251,A,1448.1513739992806,Correct,sub_003_day_03_data.csv,1,300,16.0,Training at home,,,,,,,,,,,,,
3,3,416,B,49.204593833466625,26.46338289671664,2.460229691673331,0.4156858464872938,B,1029.189832002885,Correct,sub_003_day_03_data.csv,1,300,16.0,Training at home,,,,,,,,,,,,,
3,3,417,A,51.64785697123659,64.76773735822472,2.5823928485618297,1.01736923937116,B,1176.333915998839,Incorrect,sub_003_day_03_data.csv,0,300,16.0,Training at home,,,,,,,,,,,,,
3,3,418,A,29.298067309231374,38.59186280736366,1.464903365461569,0.6061995634197943,A,967.8652910006348,Correct,sub_003_day_03_data.csv,1,300,16.0,Training at home,,,,,,,,,,,,,
3,3,419,B,56.30345882406961,35.55488582405366,2.81517294120348,0.5584948405203544,B,986.5849989982962,Correct,sub_003_day_03_data.csv,1,300,16.0,Training at home,,,,,,,,,,,,,
3,3,420,A,44.903666034182585,77.13347350395236,2.245183301709129,1.2116097685293985,A,1094.007291001617,Correct,sub_003_day_03_data.csv,1,300,16.0,Training at home,,,,,,,,,,,,,
3,3,421,B,60.21100683840703,51.74070045408223,3.010550341920351,0.812741022190674,B,511.9047910011432,Correct,sub_003_day_03_data.csv,1,300,16.0,Training at home,,,,,,,,,,,,,
3,3,422,A,13.499303344408617,33.60709633421496,0.6749651672204309,0.5278990347602709,A,852.4264580009913,Correct,sub_003_day_03_data.csv,1,300,16.0,Training at home,,,,,,,,,,,,,
3,3,423,A,31.914965577622308,40.5543270896176,1.5957482788811157,0.637025880280101,A,1007.9863330029184,Correct,sub_003_day_03_data.csv,1,300,16.0,Training at home,,,,,,,,,,,,,
3,3,424,B,32.94560520485621,15.367409409032696,1.6472802602428105,0.2413907025206189,A,1495.43679099952,Incorrect,sub_003_day_03_data.csv,0,300,16.0,Training at home,,,,,,,,,,,,,
3,3,425,B,71.67512122529558,59.986532865418035,3.583756061264779,0.9422662548215998,B,704.5681240015256,Correct,sub_003_day_03_data.csv,1,300,17.0,Training at home,,,,,,,,,,,,,
3,3,426,A,22.15773937324325,45.30153257714661,1.1078869686621624,0.7115948097036124,A,841.6580409975722,Correct,sub_003_day_03_data.csv,1,300,17.0,Training at home,,,,,,,,,,,,,
3,3,427,B,31.318948506756623,11.476732638841966,1.5659474253378312,0.1802760947270006,A,1377.0942500013916,Incorrect,sub_003_day_03_data.csv,0,300,17.0,Training at home,,,,,,,,,,,,,
3,3,428,A,40.05762281262683,72.27604888547577,2.0028811406313416,1.1353095210455373,A,1953.827707999153,Correct,sub_003_day_03_data.csv,1,300,17.0,Training at home,,,,,,,,,,,,,
3,3,429,A,41.4091660322256,63.15291775559154,2.07045830161128,0.9920037123686338,A,1574.6353739996266,Correct,sub_003_day_03_data.csv,1,300,17.0,Training at home,,,,,,,,,,,,,
3,3,430,A,41.43306879202012,71.66940722027579,2.0716534396010062,1.1257804160517686,A,1161.8921240005875,Correct,sub_003_day_03_data.csv,1,300,17.0,Training at home,,,,,,,,,,,,,
3,3,431,B,76.18267048591278,44.28988804911458,3.809133524295639,0.6957039346170637,B,632.8914580008131,Correct,sub_003_day_03_data.csv,1,300,17.0,Training at home,,,,,,,,,,,,,
3,3,432,B,39.2058541808877,23.002699576715028,1.960292709044385,0.3613255600147048,A,3295.331790999626,Incorrect,sub_003_day_03_data.csv,0,300,17.0,Training at home,,,,,,,,,,,,,
3,3,433,A,29.794834588102663,39.26082639896523,1.4897417294051332,0.616707618944267,A,1142.0612500005518,Correct,sub_003_day_03_data.csv,1,300,17.0,Training at home,,,,,,,,,,,,,
3,3,434,B,73.1441454520718,40.11192308566313,3.65720727260359,0.6300766144363905,B,413.65399900314515,Correct,sub_003_day_03_data.csv,1,300,17.0,Training at home,,,,,,,,,,,,,
3,3,435,A,23.370138989425968,41.423052591229784,1.1685069494712983,0.6506717885493557,A,932.051207000768,Correct,sub_003_day_03_data.csv,1,300,17.0,Training at home,,,,,,,,,,,,,
3,3,436,A,26.45518165614204,43.44309219690497,1.322759082807102,0.6824024964751036,A,949.0107909987272,Correct,sub_003_day_03_data.csv,1,300,17.0,Training at home,,,,,,,,,,,,,
3,3,437,B,46.36589283304218,24.869887013608068,2.318294641652109,0.3906552716877965,B,700.348957998358,Correct,sub_003_day_03_data.csv,1,300,17.0,Training at home,,,,,,,,,,,,,
3,3,438,B,36.23693879740275,17.981402997760167,1.8118469398701376,0.2824512177950041,B,1490.559290999954,Correct,sub_003_day_03_data.csv,1,300,17.0,Training at home,,,,,,,,,,,,,
3,3,439,A,47.09979100636816,70.75772360774714,2.354989550318408,1.1114597233541774,A,1334.9356660000922,Correct,sub_003_day_03_data.csv,1,300,17.0,Training at home,,,,,,,,,,,,,
3,3,440,A,43.75241056176922,57.599941218800666,2.187620528088461,0.9047777609009404,B,1850.2754990004175,Incorrect,sub_003_day_03_data.csv,0,300,17.0,Training at home,,,,,,,,,,,,,
3,3,441,B,87.84403538821775,66.2282475923825,4.392201769410888,1.0403108804817738,B,580.5211660008354,Correct,sub_003_day_03_data.csv,1,300,17.0,Training at home,,,,,,,,,,,,,
3,3,442,B,47.78491580700381,26.035220931100568,2.3892457903501905,0.4089602940586638,B,1663.3642489978229,Correct,sub_003_day_03_data.csv,1,300,17.0,Training at home,,,,,,,,,,,,,
3,3,443,A,32.42395050942634,63.06971628905426,1.621197525471317,0.990696786788427,A,988.3024580012716,Correct,sub_003_day_03_data.csv,1,300,17.0,Training at home,,,,,,,,,,,,,
3,3,444,A,40.52133309457195,70.55152962138564,2.0260666547285977,1.1082208357903391,A,986.4879989982,Correct,sub_003_day_03_data.csv,1,300,17.0,Training at home,,,,,,,,,,,,,
3,3,445,B,62.883686333056914,53.998193852618314,3.144184316652846,0.848201645572516,B,792.8670410001359,Correct,sub_003_day_03_data.csv,1,300,17.0,Training at home,,,,,,,,,,,,,
3,3,446,B,43.35930415642662,22.233124448387372,2.167965207821331,0.349237102167007,B,1111.448415998893,Correct,sub_003_day_03_data.csv,1,300,17.0,Training at home,,,,,,,,,,,,,
3,3,447,B,71.29469381329903,54.48709015360916,3.5647346906649515,0.8558812107103163,B,560.3708740018192,Correct,sub_003_day_03_data.csv,1,300,17.0,Training at home,,,,,,,,,,,,,
3,3,448,B,54.17693421790034,40.66392445349357,2.708846710895017,0.6387474316461288,B,527.1570830009296,Correct,sub_003_day_03_data.csv,1,300,17.0,Training at home,,,,,,,,,,,,,
3,3,449,B,54.8244484847346,32.68339444773733,2.7412224242367302,0.5133895594569451,B,459.19737499934854,Correct,sub_003_day_03_data.csv,1,300,17.0,Training at home,,,,,,,,,,,,,
3,3,450,B,80.57773259713467,61.90719816265667,4.028886629856734,0.9724359947606488,B,497.17929100006586,Correct,sub_003_day_03_data.csv,1,300,18.0,Training at home,,,,,,,,,,,,,
3,3,451,B,59.18571129068054,41.139963297367395,2.9592855645340266,0.6462250323198157,B,390.0146659980237,Correct,sub_003_day_03_data.csv,1,300,18.0,Training at home,,,,,,,,,,,,,
3,3,452,A,27.60812685647392,44.623004917848256,1.380406342823696,0.7009365221550665,A,976.804498997808,Correct,sub_003_day_03_data.csv,1,300,18.0,Training at home,,,,,,,,,,,,,
3,3,453,B,83.49116932889697,68.39575012079732,4.174558466444848,1.0743579305813002,B,599.0315829985775,Correct,sub_003_day_03_data.csv,1,300,18.0,Training at home,,,,,,,,,,,,,
3,3,454,B,49.09849263365445,40.20533166246374,2.4549246316827227,0.631543872929686,B,892.4365830025636,Correct,sub_003_day_03_data.csv,1,300,18.0,Training at home,,,,,,,,,,,,,
3,3,455,A,38.87652622556984,52.20053154062945,1.943826311278492,0.8199640320076188,A,1066.600706999452,Correct,sub_003_day_03_data.csv,1,300,18.0,Training at home,,,,,,,,,,,,,
3,3,456,B,65.94553784647762,37.42146042196943,3.297276892323881,0.5878149257413018,B,498.41183299940894,Correct,sub_003_day_03_data.csv,1,300,18.0,Training at home,,,,,,,,,,,,,
3,3,457,B,77.20555738590384,51.4633229399899,3.860277869295192,0.8083839863879566,B,429.7640410004533,Correct,sub_003_day_03_data.csv,1,300,18.0,Training at home,,,,,,,,,,,,,
3,3,458,B,72.50260079083108,53.398898319940834,3.625130039541554,0.8387879333585724,B,489.62879100145074,Correct,sub_003_day_03_data.csv,1,300,18.0,Training at home,,,,,,,,,,,,,
3,3,459,B,53.424907939724285,21.981290090134177,2.6712453969862144,0.3452812973179582,B,1037.336374000006,Correct,sub_003_day_03_data.csv,1,300,18.0,Training at home,,,,,,,,,,,,,
3,3,460,A,32.7642020968663,48.178118905282815,1.638210104843315,0.7567801220830601,A,920.8678739996684,Correct,sub_003_day_03_data.csv,1,300,18.0,Training at home,,,,,,,,,,,,,
3,3,461,B,60.25089863054775,30.74686010671155,3.0125449315273873,0.4829705491609904,B,517.1950410003774,Correct,sub_003_day_03_data.csv,1,300,18.0,Training at home,,,,,,,,,,,,,
3,3,462,B,83.62828488607339,64.8208920888188,4.18141424430367,1.0182041919268494,B,501.55316599921207,Correct,sub_003_day_03_data.csv,1,300,18.0,Training at home,,,,,,,,,,,,,
3,3,463,B,45.141877249522054,26.732618227934765,2.2570938624761028,0.4199149851805022,A,933.4367490009754,Incorrect,sub_003_day_03_data.csv,0,300,18.0,Training at home,,,,,,,,,,,,,
3,3,464,A,33.343683249469336,49.12510139287335,1.667184162473467,0.7716552882135231,A,1127.3238319990924,Correct,sub_003_day_03_data.csv,1,300,18.0,Training at home,,,,,,,,,,,,,
3,3,465,A,45.69207849894168,67.27661622018988,2.284603924947084,1.0567786163786423,A,2335.857791000308,Correct,sub_003_day_03_data.csv,1,300,18.0,Training at home,,,,,,,,,,,,,
3,3,466,A,40.329524039516485,53.70329525745502,2.0164762019758244,0.8435693892719215,A,1037.427540999488,Correct,sub_003_day_03_data.csv,1,300,18.0,Training at home,,,,,,,,,,,,,
3,3,467,A,52.68900388947618,81.3184711648526,2.634450194473809,1.2773475580632716,A,1508.9431239975966,Correct,sub_003_day_03_data.csv,1,300,18.0,Training at home,,,,,,,,,,,,,
3,3,468,A,12.23185210601871,36.58744668928951,0.6115926053009355,0.5747142686634005,A,840.4011659986281,Correct,sub_003_day_03_data.csv,1,300,18.0,Training at home,,,,,,,,,,,,,
3,3,469,B,84.55305606362332,61.141944306172526,4.227652803181166,0.9604154152923396,B,514.9340410025616,Correct,sub_003_day_03_data.csv,1,300,18.0,Training at home,,,,,,,,,,,,,
3,3,470,A,55.684718416135475,78.91379735852107,2.7842359208067737,1.2395750302420172,B,528.124623997428,Incorrect,sub_003_day_03_data.csv,0,300,18.0,Training at home,,,,,,,,,,,,,
3,3,471,A,15.02535523387358,34.36642799255444,0.751267761693679,0.5398265885576582,A,835.9152490011184,Correct,sub_003_day_03_data.csv,1,300,18.0,Training at home,,,,,,,,,,,,,
3,3,472,A,55.241744430648865,81.70659250035665,2.7620872215324432,1.2834441537448766,B,441.5164990023186,Incorrect,sub_003_day_03_data.csv,0,300,18.0,Training at home,,,,,,,,,,,,,
3,3,473,A,22.041032977538254,36.55239550635877,1.1020516488769128,0.5741636859694262,A,534.2994160018861,Correct,sub_003_day_03_data.csv,1,300,18.0,Training at home,,,,,,,,,,,,,
3,3,474,A,42.46960055809126,53.99858603705334,2.123480027904563,0.8482078059912158,A,1273.4961659989494,Correct,sub_003_day_03_data.csv,1,300,18.0,Training at home,,,,,,,,,,,,,
3,3,475,A,24.308699677195193,50.518493412843256,1.2154349838597596,0.7935426388810637,A,622.4280820024433,Correct,sub_003_day_03_data.csv,1,300,19.0,Training at home,,,,,,,,,,,,,
3,3,476,B,57.58422605940807,36.27307731123248,2.8792113029704036,0.5697761660203129,B,631.6713330015773,Correct,sub_003_day_03_data.csv,1,300,19.0,Training at home,,,,,,,,,,,,,
3,3,477,B,60.09821326630889,42.53343685584272,3.0049106633154445,0.6681136637912043,B,560.6394989990804,Correct,sub_003_day_03_data.csv,1,300,19.0,Training at home,,,,,,,,,,,,,
3,3,478,A,43.91065519497692,70.4931393813274,2.195532759748846,1.1073036440442974,A,860.2425819990458,Correct,sub_003_day_03_data.csv,1,300,19.0,Training at home,,,,,,,,,,,,,
3,3,479,B,65.18557146287556,43.75843976210421,3.259278573143778,0.6873559644458904,B,561.5671660016233,Correct,sub_003_day_03_data.csv,1,300,19.0,Training at home,,,,,,,,,,,,,
3,3,480,A,25.66122895442299,35.71186985006609,1.2830614477211495,0.5609607398346123,A,736.1404570001469,Correct,sub_003_day_03_data.csv,1,300,19.0,Training at home,,,,,,,,,,,,,
3,3,481,A,39.53028605028458,65.41043839347574,1.976514302514229,1.0274647636251557,B,1011.4905409973288,Incorrect,sub_003_day_03_data.csv,0,300,19.0,Training at home,,,,,,,,,,,,,
3,3,482,B,87.86538925729337,65.39592578596087,4.3932694628646685,1.02723680011939,B,561.3187909984845,Correct,sub_003_day_03_data.csv,1,300,19.0,Training at home,,,,,,,,,,,,,
3,3,483,B,78.00846807690647,64.29283519276999,3.9004234038453234,1.0099094936003274,B,967.82249899843,Correct,sub_003_day_03_data.csv,1,300,19.0,Training at home,,,,,,,,,,,,,
3,3,484,A,12.50483310162232,33.09083415361699,0.6252416550811161,0.5197896073908067,A,565.9784159979608,Correct,sub_003_day_03_data.csv,1,300,19.0,Training at home,,,,,,,,,,,,,
3,3,485,B,80.16709378554904,63.03384934746556,4.008354689277452,0.990133390187418,B,525.2475829984178,Correct,sub_003_day_03_data.csv,1,300,19.0,Training at home,,,,,,,,,,,,,
3,3,486,B,44.80937720190506,25.304832681535665,2.2404688600952527,0.3974873822631568,B,1490.8068750009988,Correct,sub_003_day_03_data.csv,1,300,19.0,Training at home,,,,,,,,,,,,,
3,3,487,A,41.72286133570937,49.077365043546,2.086143066785468,0.7709054473917432,A,770.544915998471,Correct,sub_003_day_03_data.csv,1,300,19.0,Training at home,,,,,,,,,,,,,
3,3,488,A,29.97577241616763,41.91001259085847,1.4987886208083814,0.6583209383364835,B,2048.6773740012723,Incorrect,sub_003_day_03_data.csv,0,300,19.0,Training at home,,,,,,,,,,,,,
3,3,489,B,57.22751968894061,30.691469953909937,2.8613759844470303,0.4821004826753765,B,564.212998997391,Correct,sub_003_day_03_data.csv,1,300,19.0,Training at home,,,,,,,,,,,,,
3,3,490,B,79.8061385333497,58.45474056741146,3.990306926667485,0.9182049176703856,B,551.8942490016343,Correct,sub_003_day_03_data.csv,1,300,19.0,Training at home,,,,,,,,,,,,,
3,3,491,A,50.45549847725909,81.51143705297633,2.522774923862954,1.2803786591458863,A,1093.2127909982228,Correct,sub_003_day_03_data.csv,1,300,19.0,Training at home,,,,,,,,,,,,,
3,3,492,B,38.01905078623756,19.568066749945316,1.9009525393118776,0.3073744737329145,A,975.2213329993538,Incorrect,sub_003_day_03_data.csv,0,300,19.0,Training at home,,,,,,,,,,,,,
3,3,493,A,20.03057987523377,47.429326421171616,1.0015289937616885,0.745018117247325,A,530.5387910011632,Correct,sub_003_day_03_data.csv,1,300,19.0,Training at home,,,,,,,,,,,,,
3,3,494,B,67.3035481840731,44.85570827885782,3.3651774092036546,0.7045918180021329,B,502.24437400174793,Correct,sub_003_day_03_data.csv,1,300,19.0,Training at home,,,,,,,,,,,,,
3,3,495,B,79.9250059762712,62.50554525383019,3.99625029881356,0.9818348088902866,B,442.5550409978314,Correct,sub_003_day_03_data.csv,1,300,19.0,Training at home,,,,,,,,,,,,,
3,3,496,A,36.398936682189735,59.842267162485555,1.8199468341094869,0.9400001344591116,A,1512.7958330012916,Correct,sub_003_day_03_data.csv,1,300,19.0,Training at home,,,,,,,,,,,,,
3,3,497,B,78.1089150883131,54.54637300125835,3.9054457544156542,0.8568124235036094,B,456.8725410026673,Correct,sub_003_day_03_data.csv,1,300,19.0,Training at home,,,,,,,,,,,,,
3,3,498,B,41.62187690172091,24.133909040177237,2.0810938450860452,0.3790945567151255,A,843.2152070017764,Incorrect,sub_003_day_03_data.csv,0,300,19.0,Training at home,,,,,,,,,,,,,
3,3,499,B,45.92966740205373,17.90896965577135,2.296483370102686,0.281313437519669,B,838.2819580001524,Correct,sub_003_day_03_data.csv,1,300,19.0,Training at home,,,,,,,,,,,,,
3,3,500,B,83.5784637868856,65.64612540618629,4.17892318934428,1.0311669265635457,B,1352.1534159990551,Correct,sub_003_day_03_data.csv,1,300,20.0,Training at home,,,,,,,,,,,,,
3,3,501,B,52.131780969697985,34.65708389373155,2.606589048484899,0.5443922007769609,A,814.4922499996028,Incorrect,sub_003_day_03_data.csv,0,300,20.0,Training at home,,,,,,,,,,,,,
3,3,502,A,11.610488613662888,34.25440498705137,0.5805244306831444,0.5380669353020509,A,640.3439159985282,Correct,sub_003_day_03_data.csv,1,300,20.0,Training at home,,,,,,,,,,,,,
3,3,503,A,63.14696609727361,75.31561742993586,3.157348304863681,1.1830549520923292,B,903.5110000004352,Incorrect,sub_003_day_03_data.csv,0,300,20.0,Training at home,,,,,,,,,,,,,
3,3,504,A,54.22211730684323,71.92282359063506,2.711105865342162,1.1297610710888688,A,667.7390819968423,Correct,sub_003_day_03_data.csv,1,300,20.0,Training at home,,,,,,,,,,,,,
3,3,505,B,36.75282208071236,18.825085571204205,1.837641104035618,0.2957037526684717,A,632.5302080003894,Incorrect,sub_003_day_03_data.csv,0,300,20.0,Training at home,,,,,,,,,,,,,
3,3,506,A,38.29524954410389,63.05299752147527,1.9147624772051943,0.9904341690014108,A,888.8930409993918,Correct,sub_003_day_03_data.csv,1,300,20.0,Training at home,,,,,,,,,,,,,
3,3,507,B,47.456225978678006,25.642907537450306,2.3728112989339003,0.402797849681681,B,511.82875000085915,Correct,sub_003_day_03_data.csv,1,300,20.0,Training at home,,,,,,,,,,,,,
3,3,508,B,33.7146014354771,13.619923226754224,1.685730071773855,0.2139412537581403,A,887.7248739991046,Incorrect,sub_003_day_03_data.csv,0,300,20.0,Training at home,,,,,,,,,,,,,
3,3,509,A,56.45421003916323,77.79512578349022,2.8227105019581615,1.2220029782325337,B,581.3242490003176,Incorrect,sub_003_day_03_data.csv,0,300,20.0,Training at home,,,,,,,,,,,,,
3,3,510,A,15.370843582751071,35.18107474835686,0.7685421791375535,0.5526230298741565,A,546.5779989972361,Correct,sub_003_day_03_data.csv,1,300,20.0,Training at home,,,,,,,,,,,,,
3,3,511,B,77.64352255770001,62.25848739431682,3.8821761278850007,0.9779540331079924,B,613.2039580006676,Correct,sub_003_day_03_data.csv,1,300,20.0,Training at home,,,,,,,,,,,,,
3,3,512,A,15.198458296911776,41.293615525977,0.7599229148455889,0.6486385958828539,A,572.183958000096,Correct,sub_003_day_03_data.csv,1,300,20.0,Training at home,,,,,,,,,,,,,
3,3,513,B,70.3124145522898,39.31137438688132,3.5156207276144897,0.6175016248817216,B,1522.50312400065,Correct,sub_003_day_03_data.csv,1,300,20.0,Training at home,,,,,,,,,,,,,
3,3,514,B,59.747644404574245,29.75127565194024,2.9873822202287124,0.4673319451153017,B,534.9691659976088,Correct,sub_003_day_03_data.csv,1,300,20.0,Training at home,,,,,,,,,,,,,
3,3,515,A,28.5678417787636,48.11594020084806,1.42839208893818,0.7558034212777501,A,699.2131660008454,Correct,sub_003_day_03_data.csv,1,300,20.0,Training at home,,,,,,,,,,,,,
3,3,516,B,81.88701766000636,59.740451312582664,4.094350883000318,0.9384008148287422,B,940.5978329996288,Correct,sub_003_day_03_data.csv,1,300,20.0,Training at home,,,,,,,,,,,,,
3,3,517,A,56.96516187014309,83.94753975983822,2.848258093507155,1.3186448709822245,A,1256.3494159985569,Correct,sub_003_day_03_data.csv,1,300,20.0,Training at home,,,,,,,,,,,,,
3,3,518,B,33.13170905193585,17.73713302449103,1.6565854525967925,0.2786142340274296,A,586.1830409994582,Incorrect,sub_003_day_03_data.csv,0,300,20.0,Training at home,,,,,,,,,,,,,
3,3,519,A,59.510532922425995,82.4014796394694,2.9755266461213,1.29435941540143,A,1401.0785409991513,Correct,sub_003_day_03_data.csv,1,300,20.0,Training at home,,,,,,,,,,,,,
3,3,520,A,40.540576898079976,48.178683432363606,2.027028844903999,0.7567889896537088,A,716.0152489996108,Correct,sub_003_day_03_data.csv,1,300,20.0,Training at home,,,,,,,,,,,,,
3,3,521,B,32.978694623499734,16.416771244031256,1.648934731174987,0.2578740396795638,A,702.9054159975203,Incorrect,sub_003_day_03_data.csv,0,300,20.0,Training at home,,,,,,,,,,,,,
3,3,522,B,67.56289984997359,51.50706209332064,3.3781449924986795,0.8090710394018472,B,721.053416000359,Correct,sub_003_day_03_data.csv,1,300,20.0,Training at home,,,,,,,,,,,,,
3,3,523,B,55.26393297929423,48.456530134429784,2.763196648964712,0.7611533954438852,B,650.8997489981994,Correct,sub_003_day_03_data.csv,1,300,20.0,Training at home,,,,,,,,,,,,,
3,3,524,A,20.776790695699013,49.76814563280611,1.0388395347849508,0.7817562035140531,A,606.4161239992245,Correct,sub_003_day_03_data.csv,1,300,20.0,Training at home,,,,,,,,,,,,,
3,3,525,A,60.21521538032906,87.56466099272245,3.010760769016453,1.375462478444088,A,848.0686240000068,Correct,sub_003_day_03_data.csv,1,300,21.0,Training at home,,,,,,,,,,,,,
3,3,526,A,19.98701291480924,38.2862373249376,0.999350645740462,0.6013988095680964,A,502.61925000086194,Correct,sub_003_day_03_data.csv,1,300,21.0,Training at home,,,,,,,,,,,,,
3,3,527,A,21.09275243609745,49.450712960129465,1.0546376218048723,0.7767699827516015,A,658.8370829995256,Correct,sub_003_day_03_data.csv,1,300,21.0,Training at home,,,,,,,,,,,,,
3,3,528,A,52.119689613267546,75.3407679435883,2.605984480663377,1.183450015436952,B,625.7741239969619,Incorrect,sub_003_day_03_data.csv,0,300,21.0,Training at home,,,,,,,,,,,,,
3,3,529,B,77.78376292770167,46.206326226421275,3.889188146385083,0.7258072751114923,A,554.2212910004309,Incorrect,sub_003_day_03_data.csv,0,300,21.0,Training at home,,,,,,,,,,,,,
3,3,530,B,82.75121091308668,52.00944689182128,4.137560545654334,0.8169624813630713,B,520.0339160001022,Correct,sub_003_day_03_data.csv,1,300,21.0,Training at home,,,,,,,,,,,,,
3,3,531,A,29.95896201933032,43.16666961731944,1.497948100966516,0.6780604607485425,A,946.6871660006292,Correct,sub_003_day_03_data.csv,1,300,21.0,Training at home,,,,,,,,,,,,,
3,3,532,B,63.513864804348614,38.1357662606753,3.1756932402174307,0.5990352156177751,B,435.7997080005589,Correct,sub_003_day_03_data.csv,1,300,21.0,Training at home,,,,,,,,,,,,,
3,3,533,B,54.590941003417264,26.15094115665357,2.729547050170863,0.4107780231110092,B,393.5522909996507,Correct,sub_003_day_03_data.csv,1,300,21.0,Training at home,,,,,,,,,,,,,
3,3,534,A,52.90466621051647,68.01933478407787,2.645233310525823,1.0684452122986186,B,928.2199159970332,Incorrect,sub_003_day_03_data.csv,0,300,21.0,Training at home,,,,,,,,,,,,,
3,3,535,A,59.68344012303652,69.31074238826777,2.9841720061518258,1.0887305955091835,B,417.7809159991739,Incorrect,sub_003_day_03_data.csv,0,300,21.0,Training at home,,,,,,,,,,,,,
3,3,536,B,56.69072865337279,49.070925088789586,2.8345364326686395,0.7708042888189823,B,1533.6825829981535,Correct,sub_003_day_03_data.csv,1,300,21.0,Training at home,,,,,,,,,,,,,
3,3,537,A,58.654076204932224,78.0577322281088,2.932703810246611,1.2261279906185292,A,846.9670000013139,Correct,sub_003_day_03_data.csv,1,300,21.0,Training at home,,,,,,,,,,,,,
3,3,538,B,78.28698908360093,47.15880196404448,3.9143494541800465,0.7407687290116901,B,489.3735830009973,Correct,sub_003_day_03_data.csv,1,300,21.0,Training at home,,,,,,,,,,,,,
3,3,539,A,64.49658496579374,82.98226201800115,3.2248292482896876,1.3034823236700788,A,793.1092910002917,Correct,sub_003_day_03_data.csv,1,300,21.0,Training at home,,,,,,,,,,,,,
3,3,540,A,31.351424682884897,42.66403427823401,1.567571234144245,0.6701650833050153,A,534.506957999838,Correct,sub_003_day_03_data.csv,1,300,21.0,Training at home,,,,,,,,,,,,,
3,3,541,B,32.845377908718305,18.447018865349182,1.6422688954359157,0.2897650947400666,A,1741.4325829995505,Incorrect,sub_003_day_03_data.csv,0,300,21.0,Training at home,,,,,,,,,,,,,
3,3,542,A,34.39402567187895,65.94246798921807,1.7197012835939476,1.035821864972538,A,555.0008749996778,Correct,sub_003_day_03_data.csv,1,300,21.0,Training at home,,,,,,,,,,,,,
3,3,543,B,64.09530808518872,51.422514827731405,3.204765404259436,0.807742974059566,B,641.5623749999213,Correct,sub_003_day_03_data.csv,1,300,21.0,Training at home,,,,,,,,,,,,,
3,3,544,A,32.74235028404622,60.57287290082139,1.6371175142023109,0.9514764625602437,A,609.999541000434,Correct,sub_003_day_03_data.csv,1,300,21.0,Training at home,,,,,,,,,,,,,
3,3,545,B,44.2000633192976,36.10752351481825,2.21000316596488,0.5671756530673685,B,1124.9487069981114,Correct,sub_003_day_03_data.csv,1,300,21.0,Training at home,,,,,,,,,,,,,
3,3,546,A,38.99141720877663,49.83205421612454,1.9495708604388315,0.7827600771933256,B,1536.1419579967333,Incorrect,sub_003_day_03_data.csv,0,300,21.0,Training at home,,,,,,,,,,,,,
3,3,547,A,45.79795527033869,73.01360093439877,2.2898977635169344,1.1468949615382202,A,1025.897416002408,Correct,sub_003_day_03_data.csv,1,300,21.0,Training at home,,,,,,,,,,,,,
3,3,548,B,71.65979609871405,43.00549629203594,3.582989804935703,0.675528756075216,B,845.8782910020091,Correct,sub_003_day_03_data.csv,1,300,21.0,Training at home,,,,,,,,,,,,,
3,3,549,A,41.260451798408766,71.59950109264541,2.0630225899204384,1.124682333166746,A,573.1748329999391,Correct,sub_003_day_03_data.csv,1,300,21.0,Training at home,,,,,,,,,,,,,
3,3,550,A,42.77956599894678,69.05079633535306,2.1389782999473392,1.084647372458351,B,1201.101373997517,Incorrect,sub_003_day_03_data.csv,0,300,22.0,Training at home,,,,,,,,,,,,,
3,3,551,B,82.36266621021502,61.22004934310759,4.118133310510752,0.9616422863435572,B,560.3925409996009,Correct,sub_003_day_03_data.csv,1,300,22.0,Training at home,,,,,,,,,,,,,
3,3,552,A,54.044136313528114,73.10983904644884,2.7022068156764054,1.1484066662672794,B,1215.5930830012949,Incorrect,sub_003_day_03_data.csv,0,300,22.0,Training at home,,,,,,,,,,,,,
3,3,553,B,79.82527285898155,48.776758454133,3.991263642949077,0.7661835301271404,B,662.0360830020218,Correct,sub_003_day_03_data.csv,1,300,22.0,Training at home,,,,,,,,,,,,,
3,3,554,A,48.97245581871029,56.05509047010422,2.4486227909355143,0.8805113020859532,B,2007.944666002004,Incorrect,sub_003_day_03_data.csv,0,300,22.0,Training at home,,,,,,,,,,,,,
3,3,555,B,44.32662862029173,31.580785152676427,2.2163314310145865,0.4960698131512293,B,2540.2604570008407,Correct,sub_003_day_03_data.csv,1,300,22.0,Training at home,,,,,,,,,,,,,
3,3,556,A,43.004012642970935,63.36774945677717,2.1502006321485467,0.9953782808396489,A,771.5271250017395,Correct,sub_003_day_03_data.csv,1,300,22.0,Training at home,,,,,,,,,,,,,
3,3,557,A,33.30229297838687,49.38369104520491,1.6651146489193436,0.775717204973819,A,1172.299915997428,Correct,sub_003_day_03_data.csv,1,300,22.0,Training at home,,,,,,,,,,,,,
3,3,558,A,16.900582756579293,31.67665961888202,0.8450291378289647,0.497575805744721,A,579.0047490008874,Correct,sub_003_day_03_data.csv,1,300,22.0,Training at home,,,,,,,,,,,,,
3,3,559,A,24.635248411603765,51.497387466083104,1.2317624205801885,0.8089190707125687,A,685.9114159997262,Correct,sub_003_day_03_data.csv,1,300,22.0,Training at home,,,,,,,,,,,,,
3,3,560,A,31.01807296410182,48.77682023605459,1.5509036482050909,0.7661845005952953,A,604.6351240001968,Correct,sub_003_day_03_data.csv,1,300,22.0,Training at home,,,,,,,,,,,,,
3,3,561,B,68.97132347608779,40.3038050075728,3.448566173804389,0.633090688617531,B,710.8165829995414,Correct,sub_003_day_03_data.csv,1,300,22.0,Training at home,,,,,,,,,,,,,
3,3,562,B,51.038172113696014,33.80819872012541,2.5519086056848006,0.5310579436512491,B,621.1237499992421,Correct,sub_003_day_03_data.csv,1,300,22.0,Training at home,,,,,,,,,,,,,
3,3,563,A,57.12090102491718,66.59321101232901,2.856045051245859,1.0460437124764386,B,581.9089579999854,Incorrect,sub_003_day_03_data.csv,0,300,22.0,Training at home,,,,,,,,,,,,,
3,3,564,A,52.727217193659584,82.3281693529137,2.6363608596829793,1.29320786011305,A,865.1004989987996,Correct,sub_003_day_03_data.csv,1,300,22.0,Training at home,,,,,,,,,,,,,
3,3,565,A,44.11522475435916,62.53569922666004,2.205761237717958,0.9823084663878804,B,1266.9973320007557,Incorrect,sub_003_day_03_data.csv,0,300,22.0,Training at home,,,,,,,,,,,,,
3,3,566,A,24.602707672037056,42.3440731376344,1.2301353836018527,0.6651391454613056,A,642.9712909994123,Correct,sub_003_day_03_data.csv,1,300,22.0,Training at home,,,,,,,,,,,,,
3,3,567,B,85.11975359898855,60.55050108145246,4.255987679949428,0.9511250468433594,B,673.9869989978615,Correct,sub_003_day_03_data.csv,1,300,22.0,Training at home,,,,,,,,,,,,,
3,3,568,B,47.90476192124773,35.873553772485174,2.395238096062387,0.5635004649489891,B,953.7503329993342,Correct,sub_003_day_03_data.csv,1,300,22.0,Training at home,,,,,,,,,,,,,
3,3,569,A,35.31871581088866,61.80745820815047,1.765935790544433,0.9708692832189184,A,971.7701659974408,Correct,sub_003_day_03_data.csv,1,300,22.0,Training at home,,,,,,,,,,,,,
3,3,570,A,45.12312761200383,77.31958460764207,2.256156380600191,1.214533194909914,A,1169.4909159996314,Correct,sub_003_day_03_data.csv,1,300,22.0,Training at home,,,,,,,,,,,,,
3,3,571,A,14.751161525445088,35.4817203939111,0.7375580762722543,0.5573455606311911,A,579.697249999299,Correct,sub_003_day_03_data.csv,1,300,22.0,Training at home,,,,,,,,,,,,,
3,3,572,A,64.40146292565173,87.8255843376733,3.2200731462825867,1.379561052762326,A,1003.6985410006308,Correct,sub_003_day_03_data.csv,1,300,22.0,Training at home,,,,,,,,,,,,,
3,3,573,B,68.58368104145374,53.41987587460924,3.4291840520726873,0.8391174480167551,B,861.0436240014678,Correct,sub_003_day_03_data.csv,1,300,22.0,Training at home,,,,,,,,,,,,,
3,3,574,A,28.49773125384148,53.65907123398273,1.424886562692074,0.8428747199356578,A,586.9493739992322,Correct,sub_003_day_03_data.csv,1,300,22.0,Training at home,,,,,,,,,,,,,
3,3,575,B,63.1514335125161,36.58654495418091,3.157571675625805,0.5747001042414372,B,538.1587079973542,Correct,sub_003_day_03_data.csv,1,300,23.0,Training at home,,,,,,,,,,,,,
3,3,576,A,18.96749903948598,48.10650893516541,0.9483749519742988,0.755655275302837,A,578.6047080000571,Correct,sub_003_day_03_data.csv,1,300,23.0,Training at home,,,,,,,,,,,,,
3,3,577,A,38.80226075662106,54.67530336867721,1.940113037831053,0.8588376569791479,A,643.5738330001186,Correct,sub_003_day_03_data.csv,1,300,23.0,Training at home,,,,,,,,,,,,,
3,3,578,A,42.88536281046263,67.7338166281798,2.1442681405231316,1.063960303593439,A,1618.575290998706,Correct,sub_003_day_03_data.csv,1,300,23.0,Training at home,,,,,,,,,,,,,
3,3,579,A,63.04935085620558,75.33826962568179,3.152467542810279,1.183410771951045,B,1160.9743740009435,Incorrect,sub_003_day_03_data.csv,0,300,23.0,Training at home,,,,,,,,,,,,,
3,3,580,B,62.37892909036063,38.88128704095971,3.118946454518032,0.6107458286499752,B,829.2335410005762,Correct,sub_003_day_03_data.csv,1,300,23.0,Training at home,,,,,,,,,,,,,
3,3,581,B,61.30522100679701,51.16405467562775,3.0652610503398505,0.8036830914840932,B,1026.368374001322,Correct,sub_003_day_03_data.csv,1,300,23.0,Training at home,,,,,,,,,,,,,
3,3,582,A,41.54840432542088,62.82150316132782,2.077420216271044,0.9867978640954772,A,666.2364570001955,Correct,sub_003_day_03_data.csv,1,300,23.0,Training at home,,,,,,,,,,,,,
3,3,583,A,18.40524971452267,46.43637476333144,0.9202624857261336,0.7294208690791226,A,474.49787499863305,Correct,sub_003_day_03_data.csv,1,300,23.0,Training at home,,,,,,,,,,,,,
3,3,584,A,48.00583301422007,79.10354887424782,2.4002916507110035,1.2425556400810904,A,779.2909579984553,Correct,sub_003_day_03_data.csv,1,300,23.0,Training at home,,,,,,,,,,,,,
3,3,585,B,71.7505448128757,41.833869000341686,3.5875272406437855,0.6571248776135562,B,513.1484990015451,Correct,sub_003_day_03_data.csv,1,300,23.0,Training at home,,,,,,,,,,,,,
3,3,586,B,69.1713942655581,57.008756249861655,3.458569713277905,0.8954914491242829,B,618.7706659984542,Correct,sub_003_day_03_data.csv,1,300,23.0,Training at home,,,,,,,,,,,,,
3,3,587,B,34.71020286165275,20.317651642714814,1.7355101430826378,0.3191489256947473,A,823.701916000573,Incorrect,sub_003_day_03_data.csv,0,300,23.0,Training at home,,,,,,,,,,,,,
3,3,588,A,47.766619052809986,66.75731360556807,2.388330952640499,1.048621429983213,B,1115.7291240015184,Incorrect,sub_003_day_03_data.csv,0,300,23.0,Training at home,,,,,,,,,,,,,
3,3,589,A,16.522383084824764,34.47158600143665,0.8261191542412383,0.5414784066985107,A,548.6742489993048,Correct,sub_003_day_03_data.csv,1,300,23.0,Training at home,,,,,,,,,,,,,
3,3,590,A,40.603209004224176,64.54829609361799,2.0301604502112087,1.0139222640472452,A,705.544666001515,Correct,sub_003_day_03_data.csv,1,300,23.0,Training at home,,,,,,,,,,,,,
3,3,591,B,78.4196167897988,53.09748014208615,3.92098083948994,0.8340532676925388,B,523.7820410002314,Correct,sub_003_day_03_data.csv,1,300,23.0,Training at home,,,,,,,,,,,,,
3,3,592,B,60.479342285329096,44.83748256536456,3.023967114266455,0.7043055291640486,B,590.5710409970197,Correct,sub_003_day_03_data.csv,1,300,23.0,Training at home,,,,,,,,,,,,,
3,3,593,A,30.30545667378634,48.01957055452089,1.515272833689317,0.7542896504130979,A,645.432041001186,Correct,sub_003_day_03_data.csv,1,300,23.0,Training at home,,,,,,,,,,,,,
3,3,594,A,38.15000565697801,50.61011860282318,1.9075002828489005,0.7949818839996872,A,526.7252080011531,Correct,sub_003_day_03_data.csv,1,300,23.0,Training at home,,,,,,,,,,,,,
3,3,595,B,45.80615723024013,20.51372671102922,2.2903078615120065,0.3222288656655905,B,548.1350410009327,Correct,sub_003_day_03_data.csv,1,300,23.0,Training at home,,,,,,,,,,,,,
3,3,596,B,40.85037914134496,17.268182287427177,2.042518957067248,0.2712479730751531,B,598.2043740004883,Correct,sub_003_day_03_data.csv,1,300,23.0,Training at home,,,,,,,,,,,,,
3,3,597,B,58.3011925279886,28.737608461957315,2.91505962639943,0.4514092981291248,B,538.5871660000703,Correct,sub_003_day_03_data.csv,1,300,23.0,Training at home,,,,,,,,,,,,,
3,3,598,A,31.41745005438888,50.53297878320622,1.570872502719444,0.7937701745466478,A,620.1453319990833,Correct,sub_003_day_03_data.csv,1,300,23.0,Training at home,,,,,,,,,,,,,
3,3,599,B,42.955826930339995,17.236582790231196,2.147791346517,0.2707516093339129,B,707.8825409989804,Correct,sub_003_day_03_data.csv,1,300,23.0,Training at home,,,,,,,,,,,,,
