subject,day,trial,cat,x,y,xt,yt,resp,rt,fb,f_name,acc,n_trials,block,session_type,ns_left_digit,ns_right_digit,ns_left_size,ns_right_size,ns_congruent,ns_cue,ns_correct_side,ns_resp,ns_rt,ns_fb,acc_stroop,acc_stroop_mean,resp_key
3,10,2100,B,69.4987211685686,41.89149606098028,3.4749360584284297,0.658030081365307,B,562.9737079725601,Correct,sub_003_day_10_data.csv,1,300,84.0,Training at home,,,,,,,,,,,,,
3,10,2101,A,16.43054831762632,41.56263481491431,0.8215274158813161,0.6528643409918509,A,468.7949580256827,Correct,sub_003_day_10_data.csv,1,300,84.0,Training at home,,,,,,,,,,,,,
3,10,2102,A,35.58587209432825,46.72264324254468,1.7792936047164123,0.7339175638353758,A,707.2664159932174,Correct,sub_003_day_10_data.csv,1,300,84.0,Training at home,,,,,,,,,,,,,
3,10,2103,B,33.351452230197296,14.014726894574448,1.667572611509865,0.2201428152703119,A,751.5299580409192,Incorrect,sub_003_day_10_data.csv,0,300,84.0,Training at home,,,,,,,,,,,,,
3,10,2104,A,21.898405399789624,51.324165544842565,1.094920269989481,0.806198107136519,A,584.3017910374328,Correct,sub_003_day_10_data.csv,1,300,84.0,Training at home,,,,,,,,,,,,,
3,10,2105,A,63.44620688342298,85.78982447952355,3.1723103441711493,1.3475834116881449,A,578.117040975485,Correct,sub_003_day_10_data.csv,1,300,84.0,Training at home,,,,,,,,,,,,,
3,10,2106,B,66.58300599002122,54.02102883381105,3.3291502995010607,0.8485603366183159,B,440.45716599794105,Correct,sub_003_day_10_data.csv,1,300,84.0,Training at home,,,,,,,,,,,,,
3,10,2107,A,51.1719061507222,80.14887318916966,2.5585953075361103,1.2589755560229767,A,530.5521250120364,Correct,sub_003_day_10_data.csv,1,300,84.0,Training at home,,,,,,,,,,,,,
3,10,2108,A,33.03089944836636,45.42630577865441,1.6515449724183182,0.7135547425697212,A,574.8158739879727,Correct,sub_003_day_10_data.csv,1,300,84.0,Training at home,,,,,,,,,,,,,
3,10,2109,B,61.09312890564132,34.90120000400513,3.054656445282066,0.5482267676702529,B,445.117041002959,Correct,sub_003_day_10_data.csv,1,300,84.0,Training at home,,,,,,,,,,,,,
3,10,2110,A,17.41942203782038,34.561611032154524,0.870971101891019,0.542892516574223,A,432.18858301406726,Correct,sub_003_day_10_data.csv,1,300,84.0,Training at home,,,,,,,,,,,,,
3,10,2111,B,54.632412549682414,39.07623168725569,2.7316206274841206,0.6138080119932758,B,480.7266240241006,Correct,sub_003_day_10_data.csv,1,300,84.0,Training at home,,,,,,,,,,,,,
3,10,2112,B,72.27660460782836,39.834260351474626,3.613830230391418,0.6257150984068793,B,454.9687490216456,Correct,sub_003_day_10_data.csv,1,300,84.0,Training at home,,,,,,,,,,,,,
3,10,2113,A,54.04619116480516,78.30692200111842,2.7023095582402576,1.230042254419713,A,478.121166001074,Correct,sub_003_day_10_data.csv,1,300,84.0,Training at home,,,,,,,,,,,,,
3,10,2114,A,40.96797817079393,65.28097199716078,2.048398908539696,1.0254311102274063,A,454.8396659665741,Correct,sub_003_day_10_data.csv,1,300,84.0,Training at home,,,,,,,,,,,,,
3,10,2115,A,48.87119745537025,65.06513906633441,2.443559872768512,1.0220408144779722,B,455.5837080115453,Incorrect,sub_003_day_10_data.csv,0,300,84.0,Training at home,,,,,,,,,,,,,
3,10,2116,A,56.36040506141772,85.14808416294707,2.818020253070886,1.3375029783677996,A,645.4426670097746,Correct,sub_003_day_10_data.csv,1,300,84.0,Training at home,,,,,,,,,,,,,
3,10,2117,B,64.61484050217275,45.51201732055178,3.2307420251086376,0.7149010963214845,B,496.98566598817706,Correct,sub_003_day_10_data.csv,1,300,84.0,Training at home,,,,,,,,,,,,,
3,10,2118,A,45.652306817249354,60.593957575493846,2.282615340862468,0.9518076598555152,B,634.5106250373647,Incorrect,sub_003_day_10_data.csv,0,300,84.0,Training at home,,,,,,,,,,,,,
3,10,2119,B,63.14311042206834,41.62775841981235,3.1571555211034172,0.6538873001854657,B,396.5355830150656,Correct,sub_003_day_10_data.csv,1,300,84.0,Training at home,,,,,,,,,,,,,
3,10,2120,A,25.538488632194955,47.836426518168516,1.2769244316097477,0.751412830617331,A,504.8497910029255,Correct,sub_003_day_10_data.csv,1,300,84.0,Training at home,,,,,,,,,,,,,
3,10,2121,B,56.54393481513495,30.698844822268978,2.827196740756748,0.4822163268366663,B,506.23450003331527,Correct,sub_003_day_10_data.csv,1,300,84.0,Training at home,,,,,,,,,,,,,
3,10,2122,B,53.587680255308285,24.16773135314046,2.6793840127654143,0.3796258363647889,B,457.98654097598046,Correct,sub_003_day_10_data.csv,1,300,84.0,Training at home,,,,,,,,,,,,,
3,10,2123,B,34.568071085135884,12.68405918974214,1.7284035542567944,0.19924073584096,A,441.2543330108747,Incorrect,sub_003_day_10_data.csv,0,300,84.0,Training at home,,,,,,,,,,,,,
3,10,2124,B,82.61304581757139,54.699245465040455,4.13065229087857,0.8592137385493797,B,409.8120409762487,Correct,sub_003_day_10_data.csv,1,300,84.0,Training at home,,,,,,,,,,,,,
3,10,2125,B,41.7843721541422,31.513076123881223,2.0892186077071098,0.4950062422140058,B,535.2215829771012,Correct,sub_003_day_10_data.csv,1,300,85.0,Training at home,,,,,,,,,,,,,
3,10,2126,B,58.069871537385886,41.44435288148992,2.903493576869294,0.6510063727263586,B,463.4613750386052,Correct,sub_003_day_10_data.csv,1,300,85.0,Training at home,,,,,,,,,,,,,
3,10,2127,A,42.438739061243034,64.9123847359358,2.1219369530621517,1.019641355067051,A,1131.8039580364712,Correct,sub_003_day_10_data.csv,1,300,85.0,Training at home,,,,,,,,,,,,,
3,10,2128,B,74.09492965128408,60.310579079995264,3.704746482564204,0.9473563608572968,B,537.0457909884863,Correct,sub_003_day_10_data.csv,1,300,85.0,Training at home,,,,,,,,,,,,,
3,10,2129,A,20.69491837042725,44.637205586646346,1.0347459185213623,0.7011595857389271,A,467.5224579987116,Correct,sub_003_day_10_data.csv,1,300,85.0,Training at home,,,,,,,,,,,,,
3,10,2130,A,42.39673386040587,53.31568445646962,2.1198366930202934,0.8374808130477823,A,1644.7687910404056,Correct,sub_003_day_10_data.csv,1,300,85.0,Training at home,,,,,,,,,,,,,
3,10,2131,B,51.20900980109816,39.42544207597628,2.560450490054908,0.619293395952085,B,775.5590000306256,Correct,sub_003_day_10_data.csv,1,300,85.0,Training at home,,,,,,,,,,,,,
3,10,2132,B,81.99852162829986,65.60860922650579,4.099926081414993,1.0305776237911706,B,479.0152079658583,Correct,sub_003_day_10_data.csv,1,300,85.0,Training at home,,,,,,,,,,,,,
3,10,2133,A,32.960389517359424,60.440925504030986,1.6480194758679714,0.9494038376981586,A,951.0464160121046,Correct,sub_003_day_10_data.csv,1,300,85.0,Training at home,,,,,,,,,,,,,
3,10,2134,B,42.02465822789627,32.86282453404626,2.1012329113948134,0.5162080406618508,A,1508.921124972403,Incorrect,sub_003_day_10_data.csv,0,300,85.0,Training at home,,,,,,,,,,,,,
3,10,2135,A,60.88622895352389,87.00036301131829,3.0443114476761948,1.3665985064800137,A,640.5129579943605,Correct,sub_003_day_10_data.csv,1,300,85.0,Training at home,,,,,,,,,,,,,
3,10,2136,B,79.53641255432079,56.07998127423275,3.97682062771604,0.8809022859229138,B,1250.7175419596024,Correct,sub_003_day_10_data.csv,1,300,85.0,Training at home,,,,,,,,,,,,,
3,10,2137,A,63.68742156726722,82.97128141202546,3.184371078363361,1.3033098407147523,A,542.3710410250351,Correct,sub_003_day_10_data.csv,1,300,85.0,Training at home,,,,,,,,,,,,,
3,10,2138,A,30.169140144957993,55.004788006018416,1.5084570072478996,0.8640131895598572,A,514.5619999966584,Correct,sub_003_day_10_data.csv,1,300,85.0,Training at home,,,,,,,,,,,,,
3,10,2139,A,58.749346071949574,71.30731018475242,2.9374673035974785,1.120092609118334,A,546.515540976543,Correct,sub_003_day_10_data.csv,1,300,85.0,Training at home,,,,,,,,,,,,,
3,10,2140,A,47.90120029292379,70.3946920918478,2.3950600146461896,1.1057572376373228,A,1067.5067079719156,Correct,sub_003_day_10_data.csv,1,300,85.0,Training at home,,,,,,,,,,,,,
3,10,2141,B,58.61027624456476,26.397891850945015,2.930513812228238,0.4146571155459336,B,1124.0129159996286,Correct,sub_003_day_10_data.csv,1,300,85.0,Training at home,,,,,,,,,,,,,
3,10,2142,B,52.84997787261178,29.06573299493651,2.6424988936305893,0.456563466240475,B,630.679499998223,Correct,sub_003_day_10_data.csv,1,300,85.0,Training at home,,,,,,,,,,,,,
3,10,2143,A,31.95626926267178,58.341506557547234,1.5978134631335887,0.9164262420027556,A,548.6572490190156,Correct,sub_003_day_10_data.csv,1,300,85.0,Training at home,,,,,,,,,,,,,
3,10,2144,A,37.95324480649463,68.42167952781806,1.8976622403247316,1.0747652287543417,A,630.6904170196503,Correct,sub_003_day_10_data.csv,1,300,85.0,Training at home,,,,,,,,,,,,,
3,10,2145,B,35.335568916120145,20.13320053573355,1.7667784458060072,0.316251574481553,A,839.8407489876263,Incorrect,sub_003_day_10_data.csv,0,300,85.0,Training at home,,,,,,,,,,,,,
3,10,2146,B,81.23545362163404,52.03474981034032,4.0617726810817025,0.8173599386777404,B,454.2954170028679,Correct,sub_003_day_10_data.csv,1,300,85.0,Training at home,,,,,,,,,,,,,
3,10,2147,A,12.518152301145918,35.51842835297674,0.6259076150572959,0.5579221679038358,A,483.60999999567866,Correct,sub_003_day_10_data.csv,1,300,85.0,Training at home,,,,,,,,,,,,,
3,10,2148,B,50.876201628854766,23.772028125861542,2.5438100814427385,0.3734101446056828,B,528.9437919855118,Correct,sub_003_day_10_data.csv,1,300,85.0,Training at home,,,,,,,,,,,,,
3,10,2149,A,31.33745156721347,43.38457649786628,1.5668725783606734,0.6814833340240055,A,595.5542490119115,Correct,sub_003_day_10_data.csv,1,300,85.0,Training at home,,,,,,,,,,,,,
3,10,2150,A,26.364464356607407,50.53606606194752,1.3182232178303703,0.793818669407714,A,542.193082976155,Correct,sub_003_day_10_data.csv,1,300,86.0,Training at home,,,,,,,,,,,,,
3,10,2151,B,56.31056824175142,42.68338926539568,2.815528412087571,0.6704691107324026,B,429.6281249844469,Correct,sub_003_day_10_data.csv,1,300,86.0,Training at home,,,,,,,,,,,,,
3,10,2152,A,14.374776927246934,32.65735376534616,0.7187388463623466,0.5129805133744724,A,463.3206240250729,Correct,sub_003_day_10_data.csv,1,300,86.0,Training at home,,,,,,,,,,,,,
3,10,2153,B,33.00345500808129,13.405981394972994,1.6501727504040644,0.210580663323043,A,791.842416045256,Incorrect,sub_003_day_10_data.csv,0,300,86.0,Training at home,,,,,,,,,,,,,
3,10,2154,B,51.373821164799935,43.585955007317146,2.568691058239997,0.684646580253414,B,894.0926240175031,Correct,sub_003_day_10_data.csv,1,300,86.0,Training at home,,,,,,,,,,,,,
3,10,2155,B,43.746197874406306,33.98980649407801,2.1873098937203155,0.5339106318936706,B,522.108124976512,Correct,sub_003_day_10_data.csv,1,300,86.0,Training at home,,,,,,,,,,,,,
3,10,2156,A,26.956235401177956,46.76380522395056,1.347811770058898,0.7345641347273353,A,435.1064160000533,Correct,sub_003_day_10_data.csv,1,300,86.0,Training at home,,,,,,,,,,,,,
3,10,2157,B,70.49612946366494,40.76180384726526,3.524806473183247,0.6402849175681835,B,475.6621249835007,Correct,sub_003_day_10_data.csv,1,300,86.0,Training at home,,,,,,,,,,,,,
3,10,2158,A,56.05106313690005,85.231530641824,2.8025531568450024,1.338813752592838,A,620.2431249548681,Correct,sub_003_day_10_data.csv,1,300,86.0,Training at home,,,,,,,,,,,,,
3,10,2159,A,64.41343843144595,86.90546384997239,3.220671921572298,1.365107833939433,A,531.2887919717468,Correct,sub_003_day_10_data.csv,1,300,86.0,Training at home,,,,,,,,,,,,,
3,10,2160,A,45.56428432857807,68.51320820020895,2.278214216428903,1.076202957778222,A,595.4822499770671,Correct,sub_003_day_10_data.csv,1,300,86.0,Training at home,,,,,,,,,,,,,
3,10,2161,A,42.400376607568326,63.28835959911273,2.120018830378416,0.994131227871608,A,633.0435000127181,Correct,sub_003_day_10_data.csv,1,300,86.0,Training at home,,,,,,,,,,,,,
3,10,2162,B,78.02600275936912,58.64371893940472,3.901300137968456,0.9211733829960924,B,503.2166659948416,Correct,sub_003_day_10_data.csv,1,300,86.0,Training at home,,,,,,,,,,,,,
3,10,2163,B,46.584804408767425,38.33480551092003,2.329240220438371,0.6021617168494994,B,538.0746659939177,Correct,sub_003_day_10_data.csv,1,300,86.0,Training at home,,,,,,,,,,,,,
3,10,2164,A,33.46866818799342,47.49019986456032,1.673433409399671,0.7459743150600684,A,652.320499997586,Correct,sub_003_day_10_data.csv,1,300,86.0,Training at home,,,,,,,,,,,,,
3,10,2165,B,82.46512746334358,53.355563749483565,4.123256373167179,0.8381072355175972,B,444.10741701722145,Correct,sub_003_day_10_data.csv,1,300,86.0,Training at home,,,,,,,,,,,,,
3,10,2166,B,40.07289859934087,31.822293103561016,2.0036449299670434,0.499863411172642,A,1376.0374579578638,Incorrect,sub_003_day_10_data.csv,0,300,86.0,Training at home,,,,,,,,,,,,,
3,10,2167,A,32.49879762227074,49.932911662084834,1.624939881113537,0.7843443422497691,A,556.6003750427626,Correct,sub_003_day_10_data.csv,1,300,86.0,Training at home,,,,,,,,,,,,,
3,10,2168,B,44.3967394601376,19.478061480119063,2.2198369730068803,0.3059606742605619,B,671.0861249594018,Correct,sub_003_day_10_data.csv,1,300,86.0,Training at home,,,,,,,,,,,,,
3,10,2169,A,13.821483572473994,36.21712333129156,0.6910741786236997,0.5688972429587054,A,523.3145409729332,Correct,sub_003_day_10_data.csv,1,300,86.0,Training at home,,,,,,,,,,,,,
3,10,2170,B,60.18523198772334,44.30793707162555,3.009261599386167,0.6959874479996884,B,417.9738740203902,Correct,sub_003_day_10_data.csv,1,300,86.0,Training at home,,,,,,,,,,,,,
3,10,2171,B,59.081201739007994,48.06394495996614,2.9540600869504,0.754986681943869,B,538.962958031334,Correct,sub_003_day_10_data.csv,1,300,86.0,Training at home,,,,,,,,,,,,,
3,10,2172,A,48.631605182981495,70.60596964928186,2.431580259149075,1.109075977748839,A,1350.1654160209,Correct,sub_003_day_10_data.csv,1,300,86.0,Training at home,,,,,,,,,,,,,
3,10,2173,B,36.59169210508,25.24378350719315,1.829584605254,0.3965284240750459,B,640.9571249969304,Correct,sub_003_day_10_data.csv,1,300,86.0,Training at home,,,,,,,,,,,,,
3,10,2174,A,31.839339427306133,41.23340038103495,1.5919669713653066,0.6476927385979299,A,1522.866207989864,Correct,sub_003_day_10_data.csv,1,300,86.0,Training at home,,,,,,,,,,,,,
3,10,2175,B,64.92298993187121,43.05489618458107,3.2461494965935604,0.6763047277727555,B,507.6250410056673,Correct,sub_003_day_10_data.csv,1,300,87.0,Training at home,,,,,,,,,,,,,
3,10,2176,B,74.16876221162892,63.02351801499191,3.708438110581446,0.9899711059964128,B,448.84675001958385,Correct,sub_003_day_10_data.csv,1,300,87.0,Training at home,,,,,,,,,,,,,
3,10,2177,B,76.01160387779993,65.25097465776062,3.800580193889997,1.0249599131219729,B,428.12541604507715,Correct,sub_003_day_10_data.csv,1,300,87.0,Training at home,,,,,,,,,,,,,
3,10,2178,A,15.050242356654408,33.21920612734523,0.7525121178327204,0.5218060696387641,A,500.6374579970725,Correct,sub_003_day_10_data.csv,1,300,87.0,Training at home,,,,,,,,,,,,,
3,10,2179,A,15.551042880895718,40.67146811779552,0.7775521440447859,0.6388659272478895,A,524.2385829915293,Correct,sub_003_day_10_data.csv,1,300,87.0,Training at home,,,,,,,,,,,,,
3,10,2180,A,37.143927422072125,45.001096483492155,1.857196371103606,0.7068755705801222,A,1457.3810419533402,Correct,sub_003_day_10_data.csv,1,300,87.0,Training at home,,,,,,,,,,,,,
3,10,2181,A,13.371367637529474,30.719252164827317,0.6685683818764737,0.4825368846239692,A,409.38570798607543,Correct,sub_003_day_10_data.csv,1,300,87.0,Training at home,,,,,,,,,,,,,
3,10,2182,B,72.51080385721276,57.16287388974765,3.625540192860638,0.897912323350555,B,533.0697909812443,Correct,sub_003_day_10_data.csv,1,300,87.0,Training at home,,,,,,,,,,,,,
3,10,2183,A,42.40070977457487,71.99933717735719,2.1200354887287434,1.130962943698599,A,576.1146249715239,Correct,sub_003_day_10_data.csv,1,300,87.0,Training at home,,,,,,,,,,,,,
3,10,2184,B,36.58642538768808,25.617056486589533,1.829321269384404,0.4023917823243221,A,1159.2362920055166,Incorrect,sub_003_day_10_data.csv,0,300,87.0,Training at home,,,,,,,,,,,,,
3,10,2185,A,33.27195095634946,43.25757527048741,1.663597547817473,0.6794884034093538,A,493.2206670055166,Correct,sub_003_day_10_data.csv,1,300,87.0,Training at home,,,,,,,,,,,,,
3,10,2186,A,28.908109571831645,52.569279508363664,1.4454054785915822,0.8257563115399187,A,557.1927500423044,Correct,sub_003_day_10_data.csv,1,300,87.0,Training at home,,,,,,,,,,,,,
3,10,2187,B,50.74297358389286,30.227359411200844,2.5371486791946434,0.4748102513182343,B,649.7630419908091,Correct,sub_003_day_10_data.csv,1,300,87.0,Training at home,,,,,,,,,,,,,
3,10,2188,A,42.59922416774344,56.34465842345521,2.129961208387172,0.8850598248607656,B,999.2987489677034,Incorrect,sub_003_day_10_data.csv,0,300,87.0,Training at home,,,,,,,,,,,,,
3,10,2189,B,60.194081498497944,46.199976425012814,3.009704074924897,0.7257075326642095,B,463.8778330408968,Correct,sub_003_day_10_data.csv,1,300,87.0,Training at home,,,,,,,,,,,,,
3,10,2190,A,65.08976188720438,87.3092717297003,3.2544880943602186,1.3714508332815074,A,530.8052910258994,Correct,sub_003_day_10_data.csv,1,300,87.0,Training at home,,,,,,,,,,,,,
3,10,2191,A,40.58768778193205,48.66172676133212,2.0293843890966023,0.7643766165219742,B,629.5653330162168,Incorrect,sub_003_day_10_data.csv,0,300,87.0,Training at home,,,,,,,,,,,,,
3,10,2192,B,62.20012143862622,49.275333896933944,3.110006071931311,0.774015134868959,B,562.033333000727,Correct,sub_003_day_10_data.csv,1,300,87.0,Training at home,,,,,,,,,,,,,
3,10,2193,A,63.172787192646226,83.23181842393421,3.1586393596323115,1.3074023465277569,A,624.4193750317208,Correct,sub_003_day_10_data.csv,1,300,87.0,Training at home,,,,,,,,,,,,,
3,10,2194,A,26.78775142972469,51.213845141375096,1.3393875714862344,0.8044651982911465,A,744.4004170247354,Correct,sub_003_day_10_data.csv,1,300,87.0,Training at home,,,,,,,,,,,,,
3,10,2195,A,52.56166428065512,81.85047416740315,2.6280832140327557,1.2857042416857745,A,551.0905410046689,Correct,sub_003_day_10_data.csv,1,300,87.0,Training at home,,,,,,,,,,,,,
3,10,2196,A,56.571860083181605,80.99159993820282,2.8285930041590803,1.2722130768417077,A,507.7292080386542,Correct,sub_003_day_10_data.csv,1,300,87.0,Training at home,,,,,,,,,,,,,
3,10,2197,A,16.904536609070927,42.9906834340769,0.8452268304535464,0.675296076246502,A,460.29762498801574,Correct,sub_003_day_10_data.csv,1,300,87.0,Training at home,,,,,,,,,,,,,
3,10,2198,B,55.754262107019905,33.36189860950391,2.787713105350995,0.524047477907125,B,564.9356659851037,Correct,sub_003_day_10_data.csv,1,300,87.0,Training at home,,,,,,,,,,,,,
3,10,2199,A,37.82459064174893,68.06134373564214,1.8912295320874464,1.0691050873667152,A,546.2829159805551,Correct,sub_003_day_10_data.csv,1,300,87.0,Training at home,,,,,,,,,,,,,
3,10,2200,B,76.26726288523213,45.461902286440186,3.8133631442616065,0.7141138912064876,B,557.6051240204833,Correct,sub_003_day_10_data.csv,1,300,88.0,Training at home,,,,,,,,,,,,,
3,10,2201,B,55.11433608985921,35.49070904166753,2.7557168044929603,0.5574867539799778,B,490.2794579975307,Correct,sub_003_day_10_data.csv,1,300,88.0,Training at home,,,,,,,,,,,,,
3,10,2202,A,19.791856336485157,42.90100780359402,0.9895928168242578,0.6738874547368467,A,552.1230410085991,Correct,sub_003_day_10_data.csv,1,300,88.0,Training at home,,,,,,,,,,,,,
3,10,2203,A,61.607848458721904,75.22877335802224,3.080392422936095,1.1816908086006712,A,604.8977079917677,Correct,sub_003_day_10_data.csv,1,300,88.0,Training at home,,,,,,,,,,,,,
3,10,2204,A,21.98112334986407,43.4214602590484,1.0990561674932038,0.682062702789838,A,492.47004103381187,Correct,sub_003_day_10_data.csv,1,300,88.0,Training at home,,,,,,,,,,,,,
3,10,2205,A,32.62685435966634,46.57614342086742,1.6313427179833169,0.7316163500177082,A,639.2968749860302,Correct,sub_003_day_10_data.csv,1,300,88.0,Training at home,,,,,,,,,,,,,
3,10,2206,B,62.39415141465462,45.54670476636817,3.119707570732731,0.7154459654462274,B,470.4273330280557,Correct,sub_003_day_10_data.csv,1,300,88.0,Training at home,,,,,,,,,,,,,
3,10,2207,A,36.90411321740171,51.1456518639428,1.8452056608700855,0.803394020794119,A,646.2058330071159,Correct,sub_003_day_10_data.csv,1,300,88.0,Training at home,,,,,,,,,,,,,
3,10,2208,A,64.90874414009343,80.85441861040101,3.2454372070046715,1.2700582375835483,A,593.650583003182,Correct,sub_003_day_10_data.csv,1,300,88.0,Training at home,,,,,,,,,,,,,
3,10,2209,B,84.49559290323532,63.43330706716888,4.224779645161766,0.9964080573756164,B,633.7536670034751,Correct,sub_003_day_10_data.csv,1,300,88.0,Training at home,,,,,,,,,,,,,
3,10,2210,A,43.432385666974646,57.7607635421511,2.171619283348732,0.9073039520487954,A,732.9454990103841,Correct,sub_003_day_10_data.csv,1,300,88.0,Training at home,,,,,,,,,,,,,
3,10,2211,B,56.998205297191234,34.30061751572862,2.849910264859562,0.538792840005032,B,509.1301670181565,Correct,sub_003_day_10_data.csv,1,300,88.0,Training at home,,,,,,,,,,,,,
3,10,2212,B,41.85952220456575,20.076003476026656,2.092976110228287,0.3153531251686425,B,2708.2247490179725,Correct,sub_003_day_10_data.csv,1,300,88.0,Training at home,,,,,,,,,,,,,
3,10,2213,A,41.13371148812513,67.79675026517707,2.0566855744062567,1.0649488628517108,A,562.4534990056418,Correct,sub_003_day_10_data.csv,1,300,88.0,Training at home,,,,,,,,,,,,,
3,10,2214,B,66.6443544512343,38.102188009063504,3.332217722561716,0.5985077696748551,B,470.9487489890307,Correct,sub_003_day_10_data.csv,1,300,88.0,Training at home,,,,,,,,,,,,,
3,10,2215,A,59.752028052572626,81.40166564825108,2.9876014026286315,1.278654373952591,A,670.2646240009926,Correct,sub_003_day_10_data.csv,1,300,88.0,Training at home,,,,,,,,,,,,,
3,10,2216,B,60.66849527538767,32.638920039306406,3.0334247637693834,0.5126909570829484,B,639.564250013791,Correct,sub_003_day_10_data.csv,1,300,88.0,Training at home,,,,,,,,,,,,,
3,10,2217,B,63.305183465158215,43.11478958046831,3.1652591732579105,0.6772455310353451,B,488.9172909897752,Correct,sub_003_day_10_data.csv,1,300,88.0,Training at home,,,,,,,,,,,,,
3,10,2218,A,49.09307759037715,75.35876635072012,2.4546538795188577,1.18373273375506,A,742.0793749624863,Correct,sub_003_day_10_data.csv,1,300,88.0,Training at home,,,,,,,,,,,,,
3,10,2219,B,85.6904416039901,57.52764376274374,4.284522080199505,0.903642115116832,B,468.2716660317965,Correct,sub_003_day_10_data.csv,1,300,88.0,Training at home,,,,,,,,,,,,,
3,10,2220,B,77.50787995405375,59.840162882506064,3.875393997702687,0.9399670805064884,B,516.5412080241367,Correct,sub_003_day_10_data.csv,1,300,88.0,Training at home,,,,,,,,,,,,,
3,10,2221,A,58.534193431517906,78.61041934303138,2.926709671575895,1.2348095795184015,A,998.9832919673064,Correct,sub_003_day_10_data.csv,1,300,88.0,Training at home,,,,,,,,,,,,,
3,10,2222,B,59.9491012381906,38.857615602803456,2.99745506190953,0.6103739985689173,B,595.7499160431325,Correct,sub_003_day_10_data.csv,1,300,88.0,Training at home,,,,,,,,,,,,,
3,10,2223,B,54.71474060174947,32.696938101128296,2.7357370300874737,0.5136023026669243,B,447.60108296759427,Correct,sub_003_day_10_data.csv,1,300,88.0,Training at home,,,,,,,,,,,,,
3,10,2224,B,39.08117867428785,29.413116077654372,1.9540589337143923,0.4620201469437139,B,1373.3324579661712,Correct,sub_003_day_10_data.csv,1,300,88.0,Training at home,,,,,,,,,,,,,
3,10,2225,B,37.1459616183743,26.703817957574156,1.8572980809187152,0.4194625915915708,B,561.5927500184625,Correct,sub_003_day_10_data.csv,1,300,89.0,Training at home,,,,,,,,,,,,,
3,10,2226,A,34.47870788157417,60.755513878690905,1.7239353940787083,0.9543453803318402,A,819.3652919726446,Correct,sub_003_day_10_data.csv,1,300,89.0,Training at home,,,,,,,,,,,,,
3,10,2227,B,43.016050280695985,22.53438369678431,2.1508025140347993,0.353969271374956,B,541.1226670257747,Correct,sub_003_day_10_data.csv,1,300,89.0,Training at home,,,,,,,,,,,,,
3,10,2228,A,34.366709239415904,64.58268222892484,1.7183354619707951,1.014462400197572,A,603.8834580103867,Correct,sub_003_day_10_data.csv,1,300,89.0,Training at home,,,,,,,,,,,,,
3,10,2229,B,75.49657895854834,54.526219679699686,3.7748289479274177,0.8564958558688387,B,447.20437400974333,Correct,sub_003_day_10_data.csv,1,300,89.0,Training at home,,,,,,,,,,,,,
3,10,2230,A,22.15279387222727,37.95184328537664,1.1076396936113635,0.5961461602776518,A,535.3294580127113,Correct,sub_003_day_10_data.csv,1,300,89.0,Training at home,,,,,,,,,,,,,
3,10,2231,B,73.61828718365504,57.95224705804321,3.680914359182752,0.9103117680828464,B,451.7554580233991,Correct,sub_003_day_10_data.csv,1,300,89.0,Training at home,,,,,,,,,,,,,
3,10,2232,A,20.342652887653976,37.93233639098635,1.017132644382699,0.5958397466970975,A,526.5031249728054,Correct,sub_003_day_10_data.csv,1,300,89.0,Training at home,,,,,,,,,,,,,
3,10,2233,A,37.27619070389913,62.061090049705406,1.8638095351949568,0.9748533228696457,A,539.159374020528,Correct,sub_003_day_10_data.csv,1,300,89.0,Training at home,,,,,,,,,,,,,
3,10,2234,B,57.15068548634798,43.05027139955168,2.8575342743173993,0.6762320818193918,B,528.5973330028355,Correct,sub_003_day_10_data.csv,1,300,89.0,Training at home,,,,,,,,,,,,,
3,10,2235,B,43.80520044283074,18.216162384366363,2.190260022141537,0.2861388096166204,B,1357.9688330064528,Correct,sub_003_day_10_data.csv,1,300,89.0,Training at home,,,,,,,,,,,,,
3,10,2236,B,88.2753830298782,66.84274311860865,4.41376915149391,1.049963353636053,B,1059.567958000116,Correct,sub_003_day_10_data.csv,1,300,89.0,Training at home,,,,,,,,,,,,,
3,10,2237,B,78.95729280863102,55.09424762861435,3.947864640431551,0.8654184180255585,B,458.0497079878114,Correct,sub_003_day_10_data.csv,1,300,89.0,Training at home,,,,,,,,,,,,,
3,10,2238,B,55.43609893937506,34.79583598015586,2.7718049469687527,0.5465717134538652,B,457.36954105086625,Correct,sub_003_day_10_data.csv,1,300,89.0,Training at home,,,,,,,,,,,,,
3,10,2239,B,46.48477430524809,32.655475963250595,2.3242387152624047,0.5129510169281307,B,677.5267500197515,Correct,sub_003_day_10_data.csv,1,300,89.0,Training at home,,,,,,,,,,,,,
3,10,2240,B,72.18517856541611,50.18346538498809,3.609258928270805,0.7882800309257812,B,1626.2977910228074,Correct,sub_003_day_10_data.csv,1,300,89.0,Training at home,,,,,,,,,,,,,
3,10,2241,B,58.583665662529896,31.063486551248964,2.929183283126495,0.4879441057214454,B,416.8092500185594,Correct,sub_003_day_10_data.csv,1,300,89.0,Training at home,,,,,,,,,,,,,
3,10,2242,B,46.8205667237505,17.939020404508845,2.3410283361875255,0.2817854735770119,B,636.2412080052309,Correct,sub_003_day_10_data.csv,1,300,89.0,Training at home,,,,,,,,,,,,,
3,10,2243,A,59.899412993266616,87.52795951292312,2.994970649663331,1.374885972947521,A,563.4497910505161,Correct,sub_003_day_10_data.csv,1,300,89.0,Training at home,,,,,,,,,,,,,
3,10,2244,A,38.80475387416667,57.18137086521046,1.9402376937083337,0.8982028731616932,A,723.0918330023997,Correct,sub_003_day_10_data.csv,1,300,89.0,Training at home,,,,,,,,,,,,,
3,10,2245,A,63.67977248700207,80.24087007950476,3.183988624350103,1.260420639797126,A,546.5484160231426,Correct,sub_003_day_10_data.csv,1,300,89.0,Training at home,,,,,,,,,,,,,
3,10,2246,A,37.577096458073335,62.01962344552726,1.8788548229036663,0.9742019669743686,A,1056.7610829602927,Correct,sub_003_day_10_data.csv,1,300,89.0,Training at home,,,,,,,,,,,,,
3,10,2247,B,43.43020486094012,22.124324122828355,2.171510243047006,0.3475280706495849,B,2268.4098750469275,Correct,sub_003_day_10_data.csv,1,300,89.0,Training at home,,,,,,,,,,,,,
3,10,2248,A,42.45479740691304,61.90738320183108,2.1227398703456517,0.9724389013492034,A,608.4258750197478,Correct,sub_003_day_10_data.csv,1,300,89.0,Training at home,,,,,,,,,,,,,
3,10,2249,B,52.169269928639224,30.260260268802178,2.608463496431961,0.4753270567809201,B,517.5127499969676,Correct,sub_003_day_10_data.csv,1,300,89.0,Training at home,,,,,,,,,,,,,
3,10,2250,B,41.449029657699974,31.959782349667343,2.0724514828849987,0.5020230872002184,B,535.4485000134446,Correct,sub_003_day_10_data.csv,1,300,90.0,Training at home,,,,,,,,,,,,,
3,10,2251,A,43.03140530700193,58.110491411882776,2.1515702653500965,0.9127974645803184,B,1012.9010829841718,Incorrect,sub_003_day_10_data.csv,0,300,90.0,Training at home,,,,,,,,,,,,,
3,10,2252,B,78.89295824326871,57.58832507771712,3.9446479121634352,0.904595294983485,B,476.3502499554306,Correct,sub_003_day_10_data.csv,1,300,90.0,Training at home,,,,,,,,,,,,,
3,10,2253,A,51.48629912670736,80.10625368654127,2.5743149563353676,1.2583060904411916,A,526.4342909795232,Correct,sub_003_day_10_data.csv,1,300,90.0,Training at home,,,,,,,,,,,,,
3,10,2254,B,77.04275100643468,53.226254307852656,3.8521375503217343,0.83607604755826,B,576.4785829815082,Correct,sub_003_day_10_data.csv,1,300,90.0,Training at home,,,,,,,,,,,,,
3,10,2255,B,78.27397992386913,53.35063138835812,3.9136989961934567,0.8380297581702144,B,447.49683304689825,Correct,sub_003_day_10_data.csv,1,300,90.0,Training at home,,,,,,,,,,,,,
3,10,2256,A,34.52196240247325,47.922908838048656,1.7260981201236627,0.7527712917213352,A,645.239416975528,Correct,sub_003_day_10_data.csv,1,300,90.0,Training at home,,,,,,,,,,,,,
3,10,2257,B,86.30043957152968,63.861293261258,4.3150219785764845,1.0031308487915571,B,533.9854990015738,Correct,sub_003_day_10_data.csv,1,300,90.0,Training at home,,,,,,,,,,,,,
3,10,2258,B,70.56065103171629,61.02655564552659,3.528032551585815,0.9586028944493754,B,439.49641595827416,Correct,sub_003_day_10_data.csv,1,300,90.0,Training at home,,,,,,,,,,,,,
3,10,2259,B,88.52485917752051,64.93015370822806,4.426242958876026,1.0199204694311268,B,534.7952080192044,Correct,sub_003_day_10_data.csv,1,300,90.0,Training at home,,,,,,,,,,,,,
3,10,2260,B,72.43973744502,49.78226601553951,3.621986872251,0.7819780059673589,B,511.87070802552626,Correct,sub_003_day_10_data.csv,1,300,90.0,Training at home,,,,,,,,,,,,,
3,10,2261,A,19.941773772884385,36.18664019584191,0.9970886886442192,0.5684184149867704,A,544.804250006564,Correct,sub_003_day_10_data.csv,1,300,90.0,Training at home,,,,,,,,,,,,,
3,10,2262,A,56.14539379363885,85.18202733921419,2.807269689681943,1.3380361565338008,A,582.7422919683158,Correct,sub_003_day_10_data.csv,1,300,90.0,Training at home,,,,,,,,,,,,,
3,10,2263,B,61.55828508035755,41.13505794113536,3.0779142540178777,0.6461479791643067,B,472.0179159776307,Correct,sub_003_day_10_data.csv,1,300,90.0,Training at home,,,,,,,,,,,,,
3,10,2264,B,62.62144455590009,45.53666863675943,3.1310722277950043,0.7152883182909808,B,525.950915995054,Correct,sub_003_day_10_data.csv,1,300,90.0,Training at home,,,,,,,,,,,,,
3,10,2265,A,44.28233606346129,53.380468304924584,2.2141168031730643,0.8384984353596693,A,733.9061250095256,Correct,sub_003_day_10_data.csv,1,300,90.0,Training at home,,,,,,,,,,,,,
3,10,2266,A,51.93943937087765,71.95405102697553,2.596971968543883,1.1302515905118573,A,693.8574169762433,Correct,sub_003_day_10_data.csv,1,300,90.0,Training at home,,,,,,,,,,,,,
3,10,2267,A,48.08815441020998,70.62303629392996,2.4044077205104992,1.1093440599760784,A,1100.632875051815,Correct,sub_003_day_10_data.csv,1,300,90.0,Training at home,,,,,,,,,,,,,
3,10,2268,B,66.36018990089161,46.96322226004079,3.3180094950445804,0.7376965702052438,B,505.9088330017403,Correct,sub_003_day_10_data.csv,1,300,90.0,Training at home,,,,,,,,,,,,,
3,10,2269,B,78.63391347464132,65.9802724661835,3.9316956737320656,1.0364156963080748,B,624.6048330212943,Correct,sub_003_day_10_data.csv,1,300,90.0,Training at home,,,,,,,,,,,,,
3,10,2270,A,22.78068316806214,52.0866742111612,1.139034158403107,0.8181755652585448,A,486.30141699686646,Correct,sub_003_day_10_data.csv,1,300,90.0,Training at home,,,,,,,,,,,,,
3,10,2271,A,19.883811394340917,36.18483156461765,0.9941905697170458,0.5683900050739344,A,557.8791660373099,Correct,sub_003_day_10_data.csv,1,300,90.0,Training at home,,,,,,,,,,,,,
3,10,2272,A,26.20900782210825,44.359642152255965,1.3104503911054126,0.6967996295069974,A,555.5701659759507,Correct,sub_003_day_10_data.csv,1,300,90.0,Training at home,,,,,,,,,,,,,
3,10,2273,B,72.76237698735892,53.854990306655075,3.638118849367946,0.8459522095326856,B,442.98933300888166,Correct,sub_003_day_10_data.csv,1,300,90.0,Training at home,,,,,,,,,,,,,
3,10,2274,B,45.58554097063214,37.548878984346594,2.2792770485316067,0.5898164118387772,B,903.9668329642154,Correct,sub_003_day_10_data.csv,1,300,90.0,Training at home,,,,,,,,,,,,,
3,10,2275,A,40.37014923145384,48.52631285577938,2.018507461572692,0.7622495398675823,B,1041.028000006918,Incorrect,sub_003_day_10_data.csv,0,300,91.0,Training at home,,,,,,,,,,,,,
3,10,2276,B,65.90896809618516,42.14955181315985,3.295448404809258,0.6620836116416267,B,481.3971660332754,Correct,sub_003_day_10_data.csv,1,300,91.0,Training at home,,,,,,,,,,,,,
3,10,2277,B,43.25241756814525,24.226655168931497,2.162620878407262,0.3805514094988419,B,482.59245802182704,Correct,sub_003_day_10_data.csv,1,300,91.0,Training at home,,,,,,,,,,,,,
3,10,2278,B,40.772079854106266,31.73501917294468,2.0386039927053132,0.4984925154762711,B,484.7187490086071,Correct,sub_003_day_10_data.csv,1,300,91.0,Training at home,,,,,,,,,,,,,
3,10,2279,B,39.0131136769033,19.094197791950386,1.950655683845165,0.2999309575469088,B,678.901166014839,Correct,sub_003_day_10_data.csv,1,300,91.0,Training at home,,,,,,,,,,,,,
3,10,2280,B,70.35377972702182,42.0326798539035,3.5176889863510907,0.6602477911985747,B,467.8039160207845,Correct,sub_003_day_10_data.csv,1,300,91.0,Training at home,,,,,,,,,,,,,
3,10,2281,A,32.06646906773803,57.92472789123875,1.603323453386902,0.9098794980215174,A,768.8864159863442,Correct,sub_003_day_10_data.csv,1,300,91.0,Training at home,,,,,,,,,,,,,
3,10,2282,B,83.06710344172282,61.81043353281004,4.15335517208614,0.9709160195093812,B,429.0422910125926,Correct,sub_003_day_10_data.csv,1,300,91.0,Training at home,,,,,,,,,,,,,
3,10,2283,B,35.775947280037805,15.280410452526649,1.7887973640018902,0.240024126107472,A,679.1312490240671,Incorrect,sub_003_day_10_data.csv,0,300,91.0,Training at home,,,,,,,,,,,,,
3,10,2284,A,17.97915038975886,47.61614123860875,0.898957519487943,0.7479525975375361,A,513.3762499899603,Correct,sub_003_day_10_data.csv,1,300,91.0,Training at home,,,,,,,,,,,,,
3,10,2285,B,45.96680553159508,25.72234629907027,2.298340276579754,0.4040456708312588,B,439.2544160364196,Correct,sub_003_day_10_data.csv,1,300,91.0,Training at home,,,,,,,,,,,,,
3,10,2286,B,41.998485115466906,19.921627540018942,2.0999242557733453,0.312928193636378,B,490.1560420403257,Correct,sub_003_day_10_data.csv,1,300,91.0,Training at home,,,,,,,,,,,,,
3,10,2287,B,52.07218625046025,24.72279859232512,2.603609312523013,0.3883448121691434,B,876.7028750153258,Correct,sub_003_day_10_data.csv,1,300,91.0,Training at home,,,,,,,,,,,,,
3,10,2288,A,53.88757828854078,63.141520452864334,2.6943789144270394,0.9918246839560412,A,1370.7784580183215,Correct,sub_003_day_10_data.csv,1,300,91.0,Training at home,,,,,,,,,,,,,
3,10,2289,A,45.1944020225175,63.309631397510266,2.259720101125875,0.99446536449948,A,765.3252080199309,Correct,sub_003_day_10_data.csv,1,300,91.0,Training at home,,,,,,,,,,,,,
3,10,2290,A,24.74466036130675,48.043821625809755,1.2372330180653377,0.7546705853501119,A,556.9694170262665,Correct,sub_003_day_10_data.csv,1,300,91.0,Training at home,,,,,,,,,,,,,
3,10,2291,A,36.150628979247465,56.01004053000701,1.8075314489623733,0.879803659281683,A,931.2948329607024,Correct,sub_003_day_10_data.csv,1,300,91.0,Training at home,,,,,,,,,,,,,
3,10,2292,A,30.790615970365195,59.62919752521935,1.5395307985182598,0.9366532444234188,A,621.1878329631872,Correct,sub_003_day_10_data.csv,1,300,91.0,Training at home,,,,,,,,,,,,,
3,10,2293,B,45.82539443061232,32.643601174136435,2.2912697215306164,0.5127644881769109,B,637.6455410500057,Correct,sub_003_day_10_data.csv,1,300,91.0,Training at home,,,,,,,,,,,,,
3,10,2294,B,54.31915134891776,23.606426206392474,2.715957567445888,0.3708088757375607,B,444.9459160096012,Correct,sub_003_day_10_data.csv,1,300,91.0,Training at home,,,,,,,,,,,,,
3,10,2295,B,77.80385287270713,63.08931104550476,3.890192643635357,0.9910045805029956,B,435.9856250230223,Correct,sub_003_day_10_data.csv,1,300,91.0,Training at home,,,,,,,,,,,,,
3,10,2296,B,49.47174167789915,40.78967535636021,2.473587083894958,0.6407227222092694,B,449.0033329930157,Correct,sub_003_day_10_data.csv,1,300,91.0,Training at home,,,,,,,,,,,,,
3,10,2297,A,19.63673237546441,34.50421773840377,0.9818366187732204,0.5419909848241595,A,518.483332998585,Correct,sub_003_day_10_data.csv,1,300,91.0,Training at home,,,,,,,,,,,,,
3,10,2298,A,11.321515072565544,37.681919293690626,0.5660757536282772,0.5919062041311097,A,448.8902490120381,Correct,sub_003_day_10_data.csv,1,300,91.0,Training at home,,,,,,,,,,,,,
3,10,2299,B,75.68343428315524,44.51378922902827,3.784171714157762,0.6992209661267984,B,412.9615830024704,Correct,sub_003_day_10_data.csv,1,300,91.0,Training at home,,,,,,,,,,,,,
3,10,2300,A,18.240670104685407,47.35539664762687,0.9120335052342704,0.7438568310800764,A,474.53629097435623,Correct,sub_003_day_10_data.csv,1,300,92.0,Training at home,,,,,,,,,,,,,
3,10,2301,A,49.07235760960211,56.54010153418515,2.453617880480105,0.8881298380650852,B,424.9912080122158,Incorrect,sub_003_day_10_data.csv,0,300,92.0,Training at home,,,,,,,,,,,,,
3,10,2302,A,25.49235129283479,37.375910272788445,1.2746175646417397,0.5870994256711173,A,427.4939990136773,Correct,sub_003_day_10_data.csv,1,300,92.0,Training at home,,,,,,,,,,,,,
3,10,2303,A,61.84777504118133,78.49332318641488,3.0923887520590667,1.232970237391452,A,617.5000829971395,Correct,sub_003_day_10_data.csv,1,300,92.0,Training at home,,,,,,,,,,,,,
3,10,2304,B,42.0473929627152,21.65817043265196,2.10236964813576,0.3402057456070753,B,730.3280000342056,Correct,sub_003_day_10_data.csv,1,300,92.0,Training at home,,,,,,,,,,,,,
3,10,2305,A,49.33196038867742,69.42652567755425,2.4665980194338712,1.0905493151643375,A,531.5156660508364,Correct,sub_003_day_10_data.csv,1,300,92.0,Training at home,,,,,,,,,,,,,
3,10,2306,A,19.636530712515135,49.16983576649366,0.9818265356257568,0.7723579741111657,A,527.6641660020687,Correct,sub_003_day_10_data.csv,1,300,92.0,Training at home,,,,,,,,,,,,,
3,10,2307,A,60.46704171682747,69.391508984392,3.023352085841373,1.0899992742343805,A,572.0802909927443,Correct,sub_003_day_10_data.csv,1,300,92.0,Training at home,,,,,,,,,,,,,
3,10,2308,A,56.798375632689,72.21809394727664,2.83991878163445,1.1343991670051088,A,544.7018740233034,Correct,sub_003_day_10_data.csv,1,300,92.0,Training at home,,,,,,,,,,,,,
3,10,2309,B,41.154821665808775,32.133156962167384,2.057741083290439,0.5047464492449638,A,1237.0044160052205,Incorrect,sub_003_day_10_data.csv,0,300,92.0,Training at home,,,,,,,,,,,,,
3,10,2310,B,84.81509521797899,64.08462255502205,4.240754760898949,1.00663889713466,B,798.920166969765,Correct,sub_003_day_10_data.csv,1,300,92.0,Training at home,,,,,,,,,,,,,
3,10,2311,A,36.95015946564421,68.5595478321832,1.8475079732822104,1.0769308590151236,A,542.3097079619765,Correct,sub_003_day_10_data.csv,1,300,92.0,Training at home,,,,,,,,,,,,,
3,10,2312,A,62.77672592201786,75.88115474427923,3.138836296100893,1.1919383914526895,A,662.8129579476081,Correct,sub_003_day_10_data.csv,1,300,92.0,Training at home,,,,,,,,,,,,,
3,10,2313,A,66.04722487093802,87.5970423538366,3.302361243546901,1.375971123675035,A,648.6782080028206,Correct,sub_003_day_10_data.csv,1,300,92.0,Training at home,,,,,,,,,,,,,
3,10,2314,A,15.49993558653586,38.045748676114634,0.7749967793267929,0.5976212227060267,A,541.2608329788782,Correct,sub_003_day_10_data.csv,1,300,92.0,Training at home,,,,,,,,,,,,,
3,10,2315,A,23.76209317760306,35.81061146768585,1.188104658880153,0.5625117695372014,A,624.324832984712,Correct,sub_003_day_10_data.csv,1,300,92.0,Training at home,,,,,,,,,,,,,
3,10,2316,A,54.55073647869532,67.00073117941511,2.727536823934766,1.0524450242919756,A,469.15579098276794,Correct,sub_003_day_10_data.csv,1,300,92.0,Training at home,,,,,,,,,,,,,
3,10,2317,A,57.67440468266477,74.36066250566421,2.8837202341332384,1.168054555219323,A,566.6283749742433,Correct,sub_003_day_10_data.csv,1,300,92.0,Training at home,,,,,,,,,,,,,
3,10,2318,B,70.10346818323823,49.00486537517076,3.505173409161912,0.7697666252639663,B,1027.8468750184402,Correct,sub_003_day_10_data.csv,1,300,92.0,Training at home,,,,,,,,,,,,,
3,10,2319,A,41.30108936193248,58.10770066499198,2.0650544680966245,0.9127536276306676,A,516.1500829854049,Correct,sub_003_day_10_data.csv,1,300,92.0,Training at home,,,,,,,,,,,,,
3,10,2320,A,35.27034378094994,61.82134045304487,1.763517189047497,0.9710873450117964,A,549.6707920101471,Correct,sub_003_day_10_data.csv,1,300,92.0,Training at home,,,,,,,,,,,,,
3,10,2321,A,25.491797157579445,45.15891379652556,1.2745898578789725,0.7093545591362972,A,473.7590409931727,Correct,sub_003_day_10_data.csv,1,300,92.0,Training at home,,,,,,,,,,,,,
3,10,2322,A,31.22971520109321,60.37122855514818,1.5614857600546606,0.9483090405852194,A,603.564125020057,Correct,sub_003_day_10_data.csv,1,300,92.0,Training at home,,,,,,,,,,,,,
3,10,2323,B,62.501915522277166,49.4522842053809,3.1250957761138585,0.776794663814296,B,558.6637079832144,Correct,sub_003_day_10_data.csv,1,300,92.0,Training at home,,,,,,,,,,,,,
3,10,2324,A,37.907843283700714,67.03472147451241,1.895392164185036,1.0529789425988303,A,628.5598740214482,Correct,sub_003_day_10_data.csv,1,300,92.0,Training at home,,,,,,,,,,,,,
3,10,2325,B,59.27244461030044,31.506233147377504,2.963622230515022,0.494898752990442,B,416.664666030556,Correct,sub_003_day_10_data.csv,1,300,93.0,Training at home,,,,,,,,,,,,,
3,10,2326,A,23.454530316930686,46.02696963225157,1.1727265158465343,0.72298994831841,A,469.32379103964195,Correct,sub_003_day_10_data.csv,1,300,93.0,Training at home,,,,,,,,,,,,,
3,10,2327,A,60.49585495254888,70.57805855664984,3.024792747627444,1.108637551331007,A,704.5790410484187,Correct,sub_003_day_10_data.csv,1,300,93.0,Training at home,,,,,,,,,,,,,
3,10,2328,B,51.57340415232918,27.55337500559676,2.578670207616459,0.4328074024959369,B,503.52662400109693,Correct,sub_003_day_10_data.csv,1,300,93.0,Training at home,,,,,,,,,,,,,
3,10,2329,B,68.02556116206331,54.129914244332966,3.4012780581031654,0.8502707046472098,B,547.6002490031533,Correct,sub_003_day_10_data.csv,1,300,93.0,Training at home,,,,,,,,,,,,,
3,10,2330,B,82.55956018577947,65.93627785957472,4.127978009288974,1.0357246306434762,B,515.0333330384456,Correct,sub_003_day_10_data.csv,1,300,93.0,Training at home,,,,,,,,,,,,,
3,10,2331,B,67.96963480791824,56.62485888296983,3.398481740395912,0.8894612033864837,B,492.82866599969566,Correct,sub_003_day_10_data.csv,1,300,93.0,Training at home,,,,,,,,,,,,,
3,10,2332,B,68.05496934291592,57.967462628992166,3.402748467145796,0.9105507737124132,B,506.6462079994381,Correct,sub_003_day_10_data.csv,1,300,93.0,Training at home,,,,,,,,,,,,,
3,10,2333,A,22.887964748033017,54.78041831351067,1.1443982374016508,0.8604887986715045,A,485.2924579754472,Correct,sub_003_day_10_data.csv,1,300,93.0,Training at home,,,,,,,,,,,,,
3,10,2334,A,42.10924821404608,61.687307932420545,2.1054624107023043,0.9689819671011188,B,459.14087496930733,Incorrect,sub_003_day_10_data.csv,0,300,93.0,Training at home,,,,,,,,,,,,,
3,10,2335,A,57.93879986461606,85.1503647388228,2.896939993230802,1.3375388015698852,A,580.6714160135016,Correct,sub_003_day_10_data.csv,1,300,93.0,Training at home,,,,,,,,,,,,,
3,10,2336,B,50.81091142167955,41.18600463832594,2.5405455710839777,0.6469482480123996,B,535.0215830258094,Correct,sub_003_day_10_data.csv,1,300,93.0,Training at home,,,,,,,,,,,,,
3,10,2337,B,32.548114335373704,13.0719485938377,1.627405716768685,0.2053336883525197,A,531.4014579635113,Incorrect,sub_003_day_10_data.csv,0,300,93.0,Training at home,,,,,,,,,,,,,
3,10,2338,A,40.823901311034966,60.07389514995142,2.041195065551749,0.9436385383780544,A,535.5579160386696,Correct,sub_003_day_10_data.csv,1,300,93.0,Training at home,,,,,,,,,,,,,
3,10,2339,B,51.09053761200477,25.517897606821546,2.5545268806002386,0.4008341982832356,B,549.796957988292,Correct,sub_003_day_10_data.csv,1,300,93.0,Training at home,,,,,,,,,,,,,
3,10,2340,A,13.107263992055728,37.331770804898696,0.6553631996027863,0.5864060845308382,A,484.5335829886608,Correct,sub_003_day_10_data.csv,1,300,93.0,Training at home,,,,,,,,,,,,,
3,10,2341,A,51.1384585495327,58.30694102685056,2.5569229274766347,0.9158832879162352,B,476.5950409928337,Incorrect,sub_003_day_10_data.csv,0,300,93.0,Training at home,,,,,,,,,,,,,
3,10,2342,A,55.21346703084626,79.70327135418373,2.7606733515423127,1.251976058766887,A,594.5867080008611,Correct,sub_003_day_10_data.csv,1,300,93.0,Training at home,,,,,,,,,,,,,
3,10,2343,B,64.05360547482965,39.44485747296701,3.2026802737414823,0.619598372294848,B,530.7969999848865,Correct,sub_003_day_10_data.csv,1,300,93.0,Training at home,,,,,,,,,,,,,
3,10,2344,A,24.430198837939525,49.444071420463885,1.2215099418969764,0.776665657690492,A,579.650333034806,Correct,sub_003_day_10_data.csv,1,300,93.0,Training at home,,,,,,,,,,,,,
3,10,2345,B,37.52384038984614,15.86382654066357,1.8761920194923072,0.2491884045898572,B,907.0817500469276,Correct,sub_003_day_10_data.csv,1,300,93.0,Training at home,,,,,,,,,,,,,
3,10,2346,A,47.516849570199184,74.86416755265192,2.375842478509959,1.1759635940026332,A,500.4938739584759,Correct,sub_003_day_10_data.csv,1,300,93.0,Training at home,,,,,,,,,,,,,
3,10,2347,B,64.36760131165151,56.02805341065039,3.2183800655825756,0.8800866049491791,B,452.8671249863691,Correct,sub_003_day_10_data.csv,1,300,93.0,Training at home,,,,,,,,,,,,,
3,10,2348,A,15.804007915542307,41.360630567176486,0.7902003957771154,0.6496912656884154,A,405.9714580071158,Correct,sub_003_day_10_data.csv,1,300,93.0,Training at home,,,,,,,,,,,,,
3,10,2349,B,51.71651405295003,28.08647551516517,2.585825702647502,0.4411813257183624,B,483.3020829828456,Correct,sub_003_day_10_data.csv,1,300,93.0,Training at home,,,,,,,,,,,,,
3,10,2350,A,68.39537149033272,83.75959151933519,3.419768574516636,1.315692586924127,A,484.1817080159672,Correct,sub_003_day_10_data.csv,1,300,94.0,Training at home,,,,,,,,,,,,,
3,10,2351,B,83.48586353462522,66.96005034883997,4.174293176731261,1.0518060112995915,B,1239.0748750185594,Correct,sub_003_day_10_data.csv,1,300,94.0,Training at home,,,,,,,,,,,,,
3,10,2352,B,59.78975222351228,51.971126440742864,2.9894876111756137,0.8163605451251202,B,403.6503739771433,Correct,sub_003_day_10_data.csv,1,300,94.0,Training at home,,,,,,,,,,,,,
3,10,2353,B,35.07172027852637,20.538906041826703,1.7535860139263184,0.322624381668869,A,586.6274170111865,Incorrect,sub_003_day_10_data.csv,0,300,94.0,Training at home,,,,,,,,,,,,,
3,10,2354,A,64.38539819007894,86.30675581813574,3.219269909503947,1.3557033501671167,A,503.8940829690546,Correct,sub_003_day_10_data.csv,1,300,94.0,Training at home,,,,,,,,,,,,,
3,10,2355,B,69.38811790389471,42.708948214826805,3.4694058951947353,0.670870589771234,B,613.1705829757266,Correct,sub_003_day_10_data.csv,1,300,94.0,Training at home,,,,,,,,,,,,,
3,10,2356,A,26.4536152848176,38.88508762848825,1.32268076424088,0.6108055281392702,A,472.90916595375165,Correct,sub_003_day_10_data.csv,1,300,94.0,Training at home,,,,,,,,,,,,,
3,10,2357,A,29.746050344729102,55.153124097411386,1.4873025172364551,0.866343247434769,A,527.0367080229335,Correct,sub_003_day_10_data.csv,1,300,94.0,Training at home,,,,,,,,,,,,,
3,10,2358,B,57.8601998859088,40.17076925659774,2.89300999429544,0.6310009679278908,B,469.8572079651058,Correct,sub_003_day_10_data.csv,1,300,94.0,Training at home,,,,,,,,,,,,,
3,10,2359,B,32.660617841581455,14.398100509936796,1.6330308920790728,0.2261648339383244,A,726.4149989932775,Incorrect,sub_003_day_10_data.csv,0,300,94.0,Training at home,,,,,,,,,,,,,
3,10,2360,A,34.333906348118795,62.58520426245076,1.7166953174059398,0.9830860896716594,A,532.9998750239611,Correct,sub_003_day_10_data.csv,1,300,94.0,Training at home,,,,,,,,,,,,,
3,10,2361,A,39.17709095497608,48.574196832786235,1.958854547748804,0.7630016996195291,B,773.6789580085315,Incorrect,sub_003_day_10_data.csv,0,300,94.0,Training at home,,,,,,,,,,,,,
3,10,2362,A,32.34629917537022,55.31179178979213,1.6173149587685112,0.8688355937184961,A,530.5744580109604,Correct,sub_003_day_10_data.csv,1,300,94.0,Training at home,,,,,,,,,,,,,
3,10,2363,B,48.13471150218236,39.40650894673492,2.4067355751091184,0.6189959950534144,B,442.33116699615493,Correct,sub_003_day_10_data.csv,1,300,94.0,Training at home,,,,,,,,,,,,,
3,10,2364,A,19.17783064338558,37.80969179722439,0.9588915321692788,0.593913249923272,A,421.8407919979654,Correct,sub_003_day_10_data.csv,1,300,94.0,Training at home,,,,,,,,,,,,,
3,10,2365,A,55.969382255507355,74.79394987545757,2.7984691127753676,1.1748606173085034,A,778.6408749525435,Correct,sub_003_day_10_data.csv,1,300,94.0,Training at home,,,,,,,,,,,,,
3,10,2366,A,37.067723135238715,49.495293393135995,1.8533861567619356,0.7774702505557373,A,1357.0580829982646,Correct,sub_003_day_10_data.csv,1,300,94.0,Training at home,,,,,,,,,,,,,
3,10,2367,B,35.32733625167439,19.228370486849663,1.7663668125837193,0.3020385373099485,A,677.3658330203034,Incorrect,sub_003_day_10_data.csv,0,300,94.0,Training at home,,,,,,,,,,,,,
3,10,2368,B,67.85539124987783,40.23503892103471,3.392769562493891,0.6320105134561101,B,415.6974169891328,Correct,sub_003_day_10_data.csv,1,300,94.0,Training at home,,,,,,,,,,,,,
3,10,2369,A,63.06591112846927,78.92777345759065,3.1532955564234637,1.2397945662928311,A,840.689625008963,Correct,sub_003_day_10_data.csv,1,300,94.0,Training at home,,,,,,,,,,,,,
3,10,2370,B,70.89349906651428,45.10793528578064,3.544674953325714,0.7085537905620614,B,446.84554100967944,Correct,sub_003_day_10_data.csv,1,300,94.0,Training at home,,,,,,,,,,,,,
3,10,2371,A,55.936631133893464,69.13210833256905,2.7968315566946735,1.0859246183238631,A,1046.5200410108082,Correct,sub_003_day_10_data.csv,1,300,94.0,Training at home,,,,,,,,,,,,,
3,10,2372,A,29.44733206200293,45.33391153570395,1.4723666031001466,0.7121034171952856,B,453.2632919726894,Incorrect,sub_003_day_10_data.csv,0,300,94.0,Training at home,,,,,,,,,,,,,
3,10,2373,B,46.78402843644584,21.584000412080226,2.3392014218222923,0.3390406856483515,B,459.2517919954844,Correct,sub_003_day_10_data.csv,1,300,94.0,Training at home,,,,,,,,,,,,,
3,10,2374,B,88.29974158648996,67.95600974623599,4.414987079324498,1.067450504930257,B,517.9904579999857,Correct,sub_003_day_10_data.csv,1,300,94.0,Training at home,,,,,,,,,,,,,
3,10,2375,A,35.67045969010424,44.53305205874973,1.783522984505212,0.6995235459484999,A,493.7133750063367,Correct,sub_003_day_10_data.csv,1,300,95.0,Training at home,,,,,,,,,,,,,
3,10,2376,A,65.71855933817429,78.42926849625377,3.285927966908714,1.2319640686712612,A,560.1182500249706,Correct,sub_003_day_10_data.csv,1,300,95.0,Training at home,,,,,,,,,,,,,
3,10,2377,B,72.45603064459681,60.917589908592696,3.6228015322298406,0.9568912646561528,B,577.939749986399,Correct,sub_003_day_10_data.csv,1,300,95.0,Training at home,,,,,,,,,,,,,
3,10,2378,B,83.04944585617709,65.85736161533632,4.152472292808855,1.034485017177735,B,702.7301660273224,Correct,sub_003_day_10_data.csv,1,300,95.0,Training at home,,,,,,,,,,,,,
3,10,2379,B,71.77944439934664,43.056827686345216,3.588972219967332,0.6763350677315187,B,516.1120410193689,Correct,sub_003_day_10_data.csv,1,300,95.0,Training at home,,,,,,,,,,,,,
3,10,2380,B,50.499778158426366,26.63220934929692,2.524988907921318,0.4183377662030831,B,655.7647080044262,Correct,sub_003_day_10_data.csv,1,300,95.0,Training at home,,,,,,,,,,,,,
3,10,2381,A,19.913782831217013,43.22974584186349,0.9956891415608508,0.6790512597667612,A,494.8576670140028,Correct,sub_003_day_10_data.csv,1,300,95.0,Training at home,,,,,,,,,,,,,
3,10,2382,A,45.88365273780483,69.23324335382279,2.2941826368902416,1.08751324352282,A,539.0468330006115,Correct,sub_003_day_10_data.csv,1,300,95.0,Training at home,,,,,,,,,,,,,
3,10,2383,B,50.42032395894197,36.00267569987902,2.521016197947098,0.5655287074415786,B,756.3628740026616,Correct,sub_003_day_10_data.csv,1,300,95.0,Training at home,,,,,,,,,,,,,
3,10,2384,B,66.54767853364274,53.002597654838866,3.327383926682137,0.8325628570680869,B,487.4190419795923,Correct,sub_003_day_10_data.csv,1,300,95.0,Training at home,,,,,,,,,,,,,
3,10,2385,B,60.14189800994,42.29560051691742,3.007094900497,0.6643777393155821,B,466.6395829990506,Correct,sub_003_day_10_data.csv,1,300,95.0,Training at home,,,,,,,,,,,,,
3,10,2386,A,43.63100382576732,72.91154357192292,2.181550191288366,1.145291848237226,A,520.2902490273118,Correct,sub_003_day_10_data.csv,1,300,95.0,Training at home,,,,,,,,,,,,,
3,10,2387,B,48.18906884314029,38.60951055700692,2.409453442157014,0.6064767736229525,B,390.9961669705808,Correct,sub_003_day_10_data.csv,1,300,95.0,Training at home,,,,,,,,,,,,,
3,10,2388,B,42.85361952799157,27.193603547676908,2.1426809763995784,0.4271561256500755,A,390.3777920058928,Incorrect,sub_003_day_10_data.csv,0,300,95.0,Training at home,,,,,,,,,,,,,
3,10,2389,B,39.790075775084155,14.073041625349408,1.9895037887542075,0.2210588209193053,B,904.5446240343152,Correct,sub_003_day_10_data.csv,1,300,95.0,Training at home,,,,,,,,,,,,,
3,10,2390,B,84.55117624025343,61.679489354859115,4.2275588120126715,0.9688591531719762,B,489.72299898741767,Correct,sub_003_day_10_data.csv,1,300,95.0,Training at home,,,,,,,,,,,,,
3,10,2391,A,13.629016814932651,38.00051204625446,0.6814508407466326,0.5969106473858172,A,469.2697079735808,Correct,sub_003_day_10_data.csv,1,300,95.0,Training at home,,,,,,,,,,,,,
3,10,2392,B,50.3965267296052,29.103692851174717,2.51982633648026,0.4571597382679214,B,480.2354580024258,Correct,sub_003_day_10_data.csv,1,300,95.0,Training at home,,,,,,,,,,,,,
3,10,2393,B,44.40129808332719,27.02124008750876,2.2200649041663594,0.4244486467490176,B,513.4786660200916,Correct,sub_003_day_10_data.csv,1,300,95.0,Training at home,,,,,,,,,,,,,
3,10,2394,A,49.13727354789857,57.14370053083404,2.456863677394929,0.897611148933017,A,814.1698749968782,Correct,sub_003_day_10_data.csv,1,300,95.0,Training at home,,,,,,,,,,,,,
3,10,2395,B,45.9503665733526,19.6941068094942,2.29751832866763,0.3093543063585985,B,503.47412400878966,Correct,sub_003_day_10_data.csv,1,300,95.0,Training at home,,,,,,,,,,,,,
3,10,2396,A,41.42100595010727,61.90157060326094,2.0710502975053635,0.9723475972643724,A,585.9102500253357,Correct,sub_003_day_10_data.csv,1,300,95.0,Training at home,,,,,,,,,,,,,
3,10,2397,B,39.14645656556637,14.596755693723551,1.9573228282783184,0.2292853022682344,B,436.1117079970427,Correct,sub_003_day_10_data.csv,1,300,95.0,Training at home,,,,,,,,,,,,,
3,10,2398,B,51.36043963850263,26.85800772041816,2.568021981925132,0.4218845987226182,B,489.2194580170326,Correct,sub_003_day_10_data.csv,1,300,95.0,Training at home,,,,,,,,,,,,,
3,10,2399,A,12.62973568337991,30.793949546284693,0.6314867841689954,0.4837102283481137,A,475.19149899017066,Correct,sub_003_day_10_data.csv,1,300,95.0,Training at home,,,,,,,,,,,,,
