subject,day,trial,cat,x,y,xt,yt,resp,rt,fb,f_name,acc,n_trials,block,session_type,ns_left_digit,ns_right_digit,ns_left_size,ns_right_size,ns_congruent,ns_cue,ns_correct_side,ns_resp,ns_rt,ns_fb,acc_stroop,acc_stroop_mean,resp_key
3,9,1800,B,51.22637208856658,38.27031054461787,2.5613186044283287,0.6011486322878574,B,529.2153749614954,Correct,sub_003_day_09_data.csv,1,300,72.0,Training at home,,,,,,,,,,,,,
3,9,1801,A,44.570148753260035,66.99293828355343,2.228507437663002,1.0523226137700292,B,998.4258330077864,Incorrect,sub_003_day_09_data.csv,0,300,72.0,Training at home,,,,,,,,,,,,,
3,9,1802,A,49.71071640248033,65.53812308221353,2.4855358201240163,1.0294704300257285,B,833.6550829699263,Incorrect,sub_003_day_09_data.csv,0,300,72.0,Training at home,,,,,,,,,,,,,
3,9,1803,B,75.69082181113035,61.98431787771548,3.7845410905565178,0.9736473884120272,B,455.3010829840787,Correct,sub_003_day_09_data.csv,1,300,72.0,Training at home,,,,,,,,,,,,,
3,9,1804,A,43.35095607252133,67.44532494528411,2.1675478036260665,1.0594286868354048,A,666.7506659869105,Correct,sub_003_day_09_data.csv,1,300,72.0,Training at home,,,,,,,,,,,,,
3,9,1805,A,35.589481790247966,67.75769768929372,1.7794740895123982,1.0643354264242162,A,557.4432499706745,Correct,sub_003_day_09_data.csv,1,300,72.0,Training at home,,,,,,,,,,,,,
3,9,1806,B,75.47949480534223,50.63934472184851,3.773974740267111,0.7954409668038017,B,459.6639159717597,Correct,sub_003_day_09_data.csv,1,300,72.0,Training at home,,,,,,,,,,,,,
3,9,1807,A,56.07360447532552,84.64070448794111,2.803680223766276,1.329533077069902,A,566.8314999784343,Correct,sub_003_day_09_data.csv,1,300,72.0,Training at home,,,,,,,,,,,,,
3,9,1808,A,67.97017920349435,87.98303951853767,3.3985089601747176,1.382034352959692,B,498.2886250363663,Incorrect,sub_003_day_09_data.csv,0,300,72.0,Training at home,,,,,,,,,,,,,
3,9,1809,B,49.0895678789698,29.760718424190017,2.45447839394849,0.4674802718349488,B,672.4164159968495,Correct,sub_003_day_09_data.csv,1,300,72.0,Training at home,,,,,,,,,,,,,
3,9,1810,B,43.540578669797114,24.16364744129887,2.177028933489856,0.3795616864275917,B,646.7396239750087,Correct,sub_003_day_09_data.csv,1,300,72.0,Training at home,,,,,,,,,,,,,
3,9,1811,B,63.05891245730548,42.3478506909756,3.1529456228652744,0.6651984831304318,B,472.8631249745376,Correct,sub_003_day_09_data.csv,1,300,72.0,Training at home,,,,,,,,,,,,,
3,9,1812,B,76.23501916305727,58.04195941437706,3.8117509581528632,0.9117209664808196,B,486.3842910272069,Correct,sub_003_day_09_data.csv,1,300,72.0,Training at home,,,,,,,,,,,,,
3,9,1813,A,50.6371672373876,65.2064777737969,2.53185836186938,1.0242609577031323,B,591.8042489793152,Incorrect,sub_003_day_09_data.csv,0,300,72.0,Training at home,,,,,,,,,,,,,
3,9,1814,B,58.448926319263485,26.333844646875576,2.9224463159631746,0.413651064416996,B,598.6884160083719,Correct,sub_003_day_09_data.csv,1,300,72.0,Training at home,,,,,,,,,,,,,
3,9,1815,B,81.8917704277295,57.21476423861463,4.094588521386475,0.8987274150445187,B,483.8710820185952,Correct,sub_003_day_09_data.csv,1,300,72.0,Training at home,,,,,,,,,,,,,
3,9,1816,A,54.46031317295901,70.71950211006975,2.7230156586479506,1.1108593414726151,B,614.1402490320615,Incorrect,sub_003_day_09_data.csv,0,300,72.0,Training at home,,,,,,,,,,,,,
3,9,1817,A,29.452918382108702,48.76994694792817,1.472645919105435,0.7660765352378756,A,1263.1047909962945,Correct,sub_003_day_09_data.csv,1,300,72.0,Training at home,,,,,,,,,,,,,
3,9,1818,A,43.37402274306671,51.760700218336495,2.168701137153336,0.8130551777529478,B,3014.418041042518,Incorrect,sub_003_day_09_data.csv,0,300,72.0,Training at home,,,,,,,,,,,,,
3,9,1819,A,52.487475275772525,68.8838139080045,2.624373763788626,1.082024418623167,B,536.9835820165463,Incorrect,sub_003_day_09_data.csv,0,300,72.0,Training at home,,,,,,,,,,,,,
3,9,1820,A,47.361735963849,78.67108131146374,2.3680867981924503,1.2357624554902986,A,607.9415829735808,Correct,sub_003_day_09_data.csv,1,300,72.0,Training at home,,,,,,,,,,,,,
3,9,1821,B,48.71005144520827,19.03112454479885,2.435502572260414,0.2989402052974622,B,712.9727489664219,Correct,sub_003_day_09_data.csv,1,300,72.0,Training at home,,,,,,,,,,,,,
3,9,1822,B,51.40902248531047,41.049476009833434,2.5704511242655235,0.6448036613310159,B,525.9091659681872,Correct,sub_003_day_09_data.csv,1,300,72.0,Training at home,,,,,,,,,,,,,
3,9,1823,B,62.843210898300235,53.022070071979826,3.1421605449150114,0.8328687290812752,B,458.8311240077019,Correct,sub_003_day_09_data.csv,1,300,72.0,Training at home,,,,,,,,,,,,,
3,9,1824,B,67.04217807369433,41.010368077905795,3.3521089036847167,0.6441893553728111,B,410.2472079684958,Correct,sub_003_day_09_data.csv,1,300,72.0,Training at home,,,,,,,,,,,,,
3,9,1825,B,46.40262338873772,19.9732910851534,2.320131169436886,0.3137397227056421,B,627.6177910040133,Correct,sub_003_day_09_data.csv,1,300,73.0,Training at home,,,,,,,,,,,,,
3,9,1826,B,70.67519274287531,57.68378675541277,3.5337596371437656,0.9060948035102248,B,534.2390829464421,Correct,sub_003_day_09_data.csv,1,300,73.0,Training at home,,,,,,,,,,,,,
3,9,1827,A,46.54577888471046,57.76533538385718,2.327288944235523,0.9073757663703812,B,591.3759989780374,Incorrect,sub_003_day_09_data.csv,0,300,73.0,Training at home,,,,,,,,,,,,,
3,9,1828,A,56.36578679712682,75.56590662541767,2.8182893398563413,1.186986485581322,A,838.1472080363892,Correct,sub_003_day_09_data.csv,1,300,73.0,Training at home,,,,,,,,,,,,,
3,9,1829,A,18.75871977573123,42.91607478188767,0.9379359887865616,0.6741241262784425,A,467.85720804473385,Correct,sub_003_day_09_data.csv,1,300,73.0,Training at home,,,,,,,,,,,,,
3,9,1830,A,56.7910786776403,84.1310570949918,2.8395539338820153,1.3215275545418486,A,585.1437909877859,Correct,sub_003_day_09_data.csv,1,300,73.0,Training at home,,,,,,,,,,,,,
3,9,1831,B,47.52741078319047,29.471858067661117,2.3763705391595233,0.4629428639650262,B,595.9705820423551,Correct,sub_003_day_09_data.csv,1,300,73.0,Training at home,,,,,,,,,,,,,
3,9,1832,B,57.534133392660486,37.33865426660247,2.876706669633025,0.5865142096944376,B,507.7738739782944,Correct,sub_003_day_09_data.csv,1,300,73.0,Training at home,,,,,,,,,,,,,
3,9,1833,B,76.2016207123302,50.779156121025935,3.8100810356165096,0.7976371191265212,B,767.7481659920886,Correct,sub_003_day_09_data.csv,1,300,73.0,Training at home,,,,,,,,,,,,,
3,9,1834,B,85.57515942569935,63.946736187435555,4.278757971284968,1.0044729831374606,B,483.42583305202425,Correct,sub_003_day_09_data.csv,1,300,73.0,Training at home,,,,,,,,,,,,,
3,9,1835,B,44.4689230389956,29.633366064418983,2.22344615194978,0.4654798256455789,B,482.38416598178446,Correct,sub_003_day_09_data.csv,1,300,73.0,Training at home,,,,,,,,,,,,,
3,9,1836,B,76.89083338092848,53.70368696715301,3.844541669046424,0.8435755422334692,B,395.98545798799023,Correct,sub_003_day_09_data.csv,1,300,73.0,Training at home,,,,,,,,,,,,,
3,9,1837,A,62.07511013178329,87.542977940398,3.1037555065891644,1.3751218818546385,A,516.7104990105145,Correct,sub_003_day_09_data.csv,1,300,73.0,Training at home,,,,,,,,,,,,,
3,9,1838,A,62.88965274461216,73.98664428158921,3.144482637230608,1.1621794906940095,A,498.7355829798617,Correct,sub_003_day_09_data.csv,1,300,73.0,Training at home,,,,,,,,,,,,,
3,9,1839,B,68.98897647224813,48.20565962729496,3.449448823612406,0.7572127307327995,B,393.89658300206065,Correct,sub_003_day_09_data.csv,1,300,73.0,Training at home,,,,,,,,,,,,,
3,9,1840,A,37.36836103846057,65.91374071576841,1.8684180519230285,1.0353706180164024,A,540.0023750262335,Correct,sub_003_day_09_data.csv,1,300,73.0,Training at home,,,,,,,,,,,,,
3,9,1841,A,55.15561310602283,74.05575121669477,2.7577806553011412,1.1632650198922083,A,950.4892079858108,Correct,sub_003_day_09_data.csv,1,300,73.0,Training at home,,,,,,,,,,,,,
3,9,1842,A,10.734640127061915,33.63862888009979,0.5367320063530958,0.5283943468327748,A,480.86750000948086,Correct,sub_003_day_09_data.csv,1,300,73.0,Training at home,,,,,,,,,,,,,
3,9,1843,A,14.44981598432424,41.84328197310555,0.7224907992162118,0.657272736243973,A,472.31574897887185,Correct,sub_003_day_09_data.csv,1,300,73.0,Training at home,,,,,,,,,,,,,
3,9,1844,B,64.72870391980692,50.70276256492487,3.2364351959903455,0.7964371319533777,B,614.608207019046,Correct,sub_003_day_09_data.csv,1,300,73.0,Training at home,,,,,,,,,,,,,
3,9,1845,B,39.719045904972624,22.822388439187144,1.9859522952486313,0.3584932392896148,B,485.1447489927523,Correct,sub_003_day_09_data.csv,1,300,73.0,Training at home,,,,,,,,,,,,,
3,9,1846,A,22.32484926830258,52.503937632712365,1.1162424634151291,0.8247299237573292,A,481.0094160493463,Correct,sub_003_day_09_data.csv,1,300,73.0,Training at home,,,,,,,,,,,,,
3,9,1847,B,41.642788213800706,24.99311902560129,2.0821394106900355,0.3925909956056215,A,1208.696665999014,Incorrect,sub_003_day_09_data.csv,0,300,73.0,Training at home,,,,,,,,,,,,,
3,9,1848,B,63.896376006562946,55.43695664140286,3.1948188003281475,0.8708016786100355,B,557.711249042768,Correct,sub_003_day_09_data.csv,1,300,73.0,Training at home,,,,,,,,,,,,,
3,9,1849,B,67.24985054314958,44.5326787502485,3.362492527157479,0.6995176820322749,B,438.80462396191433,Correct,sub_003_day_09_data.csv,1,300,73.0,Training at home,,,,,,,,,,,,,
3,9,1850,B,75.36655684917423,48.42678886230489,3.768327842458711,0.7606862206338052,B,418.642540986184,Correct,sub_003_day_09_data.csv,1,300,74.0,Training at home,,,,,,,,,,,,,
3,9,1851,A,63.52578860707471,87.20733340172421,3.1762894303537355,1.3698495897700629,A,508.36258300114423,Correct,sub_003_day_09_data.csv,1,300,74.0,Training at home,,,,,,,,,,,,,
3,9,1852,B,77.92351516507176,55.172011207277635,3.896175758253588,0.8666399254627858,B,440.6267909798771,Correct,sub_003_day_09_data.csv,1,300,74.0,Training at home,,,,,,,,,,,,,
3,9,1853,B,49.697443365046695,38.70225024956228,2.484872168252335,0.6079335253070931,B,484.2333329725079,Correct,sub_003_day_09_data.csv,1,300,74.0,Training at home,,,,,,,,,,,,,
3,9,1854,A,15.586527377613203,44.34123903978778,0.7793263688806603,0.6965105540923311,A,482.1862490498461,Correct,sub_003_day_09_data.csv,1,300,74.0,Training at home,,,,,,,,,,,,,
3,9,1855,A,40.78771641957649,69.02565292773936,2.0393858209788247,1.0842524207351238,A,550.7249160436913,Correct,sub_003_day_09_data.csv,1,300,74.0,Training at home,,,,,,,,,,,,,
3,9,1856,A,27.770992395658347,55.56564128960609,1.3885496197829172,0.8728230523371608,A,462.1737080160528,Correct,sub_003_day_09_data.csv,1,300,74.0,Training at home,,,,,,,,,,,,,
3,9,1857,A,34.83509918142766,60.72830709950753,1.741754959071383,0.9539180172437888,A,483.0790830310434,Correct,sub_003_day_09_data.csv,1,300,74.0,Training at home,,,,,,,,,,,,,
3,9,1858,B,69.32528307285945,58.343302964695766,3.466264153642973,0.916454459900259,B,393.5222080326639,Correct,sub_003_day_09_data.csv,1,300,74.0,Training at home,,,,,,,,,,,,,
3,9,1859,B,62.05400999016527,50.38764539059049,3.102700499508263,0.7914872829538334,B,435.92837400501594,Correct,sub_003_day_09_data.csv,1,300,74.0,Training at home,,,,,,,,,,,,,
3,9,1860,B,57.24462310771458,35.70731810928268,2.862231155385729,0.5608892412575813,B,427.2081659873947,Correct,sub_003_day_09_data.csv,1,300,74.0,Training at home,,,,,,,,,,,,,
3,9,1861,A,68.19428110020846,88.31004484044252,3.409714055010423,1.3871709405445969,A,542.184416030068,Correct,sub_003_day_09_data.csv,1,300,74.0,Training at home,,,,,,,,,,,,,
3,9,1862,A,52.30542805969809,82.46672519530128,2.6152714029849045,1.295384290195834,A,479.646457999479,Correct,sub_003_day_09_data.csv,1,300,74.0,Training at home,,,,,,,,,,,,,
3,9,1863,A,33.813716298215496,47.491320936103925,1.6906858149107749,0.7459919248106961,A,540.8979160129093,Correct,sub_003_day_09_data.csv,1,300,74.0,Training at home,,,,,,,,,,,,,
3,9,1864,B,43.61770390316163,36.04354722533199,2.1808851951580817,0.5661707158620987,B,874.2064579855651,Correct,sub_003_day_09_data.csv,1,300,74.0,Training at home,,,,,,,,,,,,,
3,9,1865,A,35.447819293928326,44.26893712048374,1.7723909646964162,0.695374838199701,A,617.1476250165142,Correct,sub_003_day_09_data.csv,1,300,74.0,Training at home,,,,,,,,,,,,,
3,9,1866,A,25.908547446585843,47.26319631321044,1.295427372329292,0.7424085516137705,A,423.86604100465775,Correct,sub_003_day_09_data.csv,1,300,74.0,Training at home,,,,,,,,,,,,,
3,9,1867,A,45.81017148627814,59.79212188969695,2.290508574313907,0.9392124543560872,A,710.5631660087965,Correct,sub_003_day_09_data.csv,1,300,74.0,Training at home,,,,,,,,,,,,,
3,9,1868,B,61.83848511208082,38.015009160031184,3.091924255604041,0.5971383675165133,B,454.35254101175815,Correct,sub_003_day_09_data.csv,1,300,74.0,Training at home,,,,,,,,,,,,,
3,9,1869,A,26.371799876603177,56.56406917632592,1.3185899938301588,0.8885063209074519,A,447.56054098252207,Correct,sub_003_day_09_data.csv,1,300,74.0,Training at home,,,,,,,,,,,,,
3,9,1870,A,20.9200607712941,48.74913445421002,1.046003038564705,0.7657496133510364,A,423.30316599691287,Correct,sub_003_day_09_data.csv,1,300,74.0,Training at home,,,,,,,,,,,,,
3,9,1871,A,60.83879389112508,83.81623909030868,3.041939694556254,1.316582404888197,A,673.2541249948554,Correct,sub_003_day_09_data.csv,1,300,74.0,Training at home,,,,,,,,,,,,,
3,9,1872,B,42.19628038119729,21.363546198795135,2.1098140190598644,0.3355777989638047,B,2741.81229097303,Correct,sub_003_day_09_data.csv,1,300,74.0,Training at home,,,,,,,,,,,,,
3,9,1873,A,34.57918627990904,63.52647532011994,1.728959313995452,0.9978715408707106,A,443.29045800259337,Correct,sub_003_day_09_data.csv,1,300,74.0,Training at home,,,,,,,,,,,,,
3,9,1874,B,65.69658161498884,54.342775185249465,3.2848290807494425,0.853614316488307,B,495.19820796558633,Correct,sub_003_day_09_data.csv,1,300,74.0,Training at home,,,,,,,,,,,,,
3,9,1875,A,40.28945818981936,53.50410996351512,2.014472909490968,0.8404405939911977,B,1013.8693319750018,Incorrect,sub_003_day_09_data.csv,0,300,75.0,Training at home,,,,,,,,,,,,,
3,9,1876,B,81.0558916634757,49.89108795523604,4.052794583173785,0.7836873769988588,B,542.5965409958735,Correct,sub_003_day_09_data.csv,1,300,75.0,Training at home,,,,,,,,,,,,,
3,9,1877,B,58.31714795002938,51.163669988267515,2.915857397501469,0.8036770488291689,B,1055.4953329847194,Correct,sub_003_day_09_data.csv,1,300,75.0,Training at home,,,,,,,,,,,,,
3,9,1878,B,74.13987133310462,43.698144933936106,3.706993566655231,0.6864088554997785,B,471.5410409844481,Correct,sub_003_day_09_data.csv,1,300,75.0,Training at home,,,,,,,,,,,,,
3,9,1879,B,74.27851317245293,57.55168774284208,3.7139256586226463,0.904019797073032,B,460.1702489890158,Correct,sub_003_day_09_data.csv,1,300,75.0,Training at home,,,,,,,,,,,,,
3,9,1880,A,41.24642207162239,68.22878430739607,2.0623211035811195,1.07173523771739,A,754.8094580415636,Correct,sub_003_day_09_data.csv,1,300,75.0,Training at home,,,,,,,,,,,,,
3,9,1881,B,56.597374686166425,30.98206910184421,2.8298687343083215,0.4866652034168255,B,464.89091601688415,Correct,sub_003_day_09_data.csv,1,300,75.0,Training at home,,,,,,,,,,,,,
3,9,1882,A,23.15700059630677,47.54798282498151,1.1578500298153385,0.7468819676798778,A,566.7935409583151,Correct,sub_003_day_09_data.csv,1,300,75.0,Training at home,,,,,,,,,,,,,
3,9,1883,B,64.0407376513869,36.968250102905685,3.2020368825693453,0.580695914696793,B,468.5849160305224,Correct,sub_003_day_09_data.csv,1,300,75.0,Training at home,,,,,,,,,,,,,
3,9,1884,B,74.79642493127443,58.88319058545338,3.7398212465637215,0.92493499481594,B,469.27041601156816,Correct,sub_003_day_09_data.csv,1,300,75.0,Training at home,,,,,,,,,,,,,
3,9,1885,B,47.78739569054054,32.251230595542815,2.389369784527027,0.5066011455409384,B,561.4144990104251,Correct,sub_003_day_09_data.csv,1,300,75.0,Training at home,,,,,,,,,,,,,
3,9,1886,A,26.54788150510359,38.872236793015546,1.3273940752551794,0.6106036676877025,B,807.1457069600001,Incorrect,sub_003_day_09_data.csv,0,300,75.0,Training at home,,,,,,,,,,,,,
3,9,1887,B,31.86364564742982,12.878333440419194,1.593182282371491,0.2022923886345035,A,879.4674990349449,Incorrect,sub_003_day_09_data.csv,0,300,75.0,Training at home,,,,,,,,,,,,,
3,9,1888,B,50.420403712076066,41.01228423145986,2.521020185603803,0.6442194542424541,B,396.3707080110907,Correct,sub_003_day_09_data.csv,1,300,75.0,Training at home,,,,,,,,,,,,,
3,9,1889,B,76.86125586263599,55.40833403040891,3.843062793131799,0.8703520756879097,B,410.783665953204,Correct,sub_003_day_09_data.csv,1,300,75.0,Training at home,,,,,,,,,,,,,
3,9,1890,A,36.383487663960125,55.387676097583274,1.8191743831980065,0.8700275816378931,A,511.15204102825373,Correct,sub_003_day_09_data.csv,1,300,75.0,Training at home,,,,,,,,,,,,,
3,9,1891,B,68.66734415780718,39.55500249188288,3.4333672078903588,0.6213285262061261,B,390.3032069792971,Correct,sub_003_day_09_data.csv,1,300,75.0,Training at home,,,,,,,,,,,,,
3,9,1892,B,72.38602625205381,45.9450123640252,3.6193013126026905,0.7217025665595688,B,387.95637496514246,Correct,sub_003_day_09_data.csv,1,300,75.0,Training at home,,,,,,,,,,,,,
3,9,1893,B,85.57724504173257,65.66074139167192,4.278862252086628,1.0313965139266783,B,516.8306240229867,Correct,sub_003_day_09_data.csv,1,300,75.0,Training at home,,,,,,,,,,,,,
3,9,1894,A,39.44047537990986,52.81911365991088,1.9720237689954931,0.8296806972155015,B,546.9582069781609,Incorrect,sub_003_day_09_data.csv,0,300,75.0,Training at home,,,,,,,,,,,,,
3,9,1895,B,68.906276591795,52.804055329587925,3.4453138295897503,0.829444161515912,B,416.55545798130333,Correct,sub_003_day_09_data.csv,1,300,75.0,Training at home,,,,,,,,,,,,,
3,9,1896,A,39.43964617334596,59.29729729369213,1.9719823086672983,0.9314397677779656,A,550.1510829781182,Correct,sub_003_day_09_data.csv,1,300,75.0,Training at home,,,,,,,,,,,,,
3,9,1897,A,19.93401473254685,48.978964575355235,0.9967007366273424,0.7693597764518537,A,443.40149901108816,Correct,sub_003_day_09_data.csv,1,300,75.0,Training at home,,,,,,,,,,,,,
3,9,1898,B,45.05311290776907,32.24057744694504,2.2526556453884536,0.5064338062740765,B,434.46441600099206,Correct,sub_003_day_09_data.csv,1,300,75.0,Training at home,,,,,,,,,,,,,
3,9,1899,A,20.545533599258885,45.34932850334165,1.0272766799629445,0.7123455863566417,A,385.3497490053997,Correct,sub_003_day_09_data.csv,1,300,75.0,Training at home,,,,,,,,,,,,,
3,9,1900,B,81.57617960523498,61.61036545820697,4.0788089802617495,0.9677733575424268,B,439.20149898622185,Correct,sub_003_day_09_data.csv,1,300,76.0,Training at home,,,,,,,,,,,,,
3,9,1901,A,44.14179084679992,57.20710964000523,2.207089542339996,0.8986071768907313,B,637.0827910141088,Incorrect,sub_003_day_09_data.csv,0,300,76.0,Training at home,,,,,,,,,,,,,
3,9,1902,A,69.17281421064769,86.85391724851063,3.4586407105323844,1.364298141817084,A,651.2960410327651,Correct,sub_003_day_09_data.csv,1,300,76.0,Training at home,,,,,,,,,,,,,
3,9,1903,A,12.808622239097954,37.31146303618608,0.6404311119548978,0.5860870908458466,A,421.83858301723376,Correct,sub_003_day_09_data.csv,1,300,76.0,Training at home,,,,,,,,,,,,,
3,9,1904,A,48.72626316238699,77.03525034328366,2.43631315811935,1.2100668827295529,A,741.2563329562545,Correct,sub_003_day_09_data.csv,1,300,76.0,Training at home,,,,,,,,,,,,,
3,9,1905,B,73.31849503980297,50.396270259210155,3.6659247519901488,0.7916227620733021,B,546.9028330408037,Correct,sub_003_day_09_data.csv,1,300,76.0,Training at home,,,,,,,,,,,,,
3,9,1906,B,54.771760302313425,45.657142349483664,2.738588015115671,0.7171807149452066,B,551.4276240137406,Correct,sub_003_day_09_data.csv,1,300,76.0,Training at home,,,,,,,,,,,,,
3,9,1907,B,83.15837106655393,68.43734103059359,4.157918553327696,1.075011239064661,B,517.0814570155926,Correct,sub_003_day_09_data.csv,1,300,76.0,Training at home,,,,,,,,,,,,,
3,9,1908,B,50.224014769989424,20.810040617361057,2.511200738499471,0.3268833536220334,B,723.9741249941289,Correct,sub_003_day_09_data.csv,1,300,76.0,Training at home,,,,,,,,,,,,,
3,9,1909,B,60.958746617723904,46.11580580490298,3.0479373308861955,0.7243853836552838,B,480.9283330105245,Correct,sub_003_day_09_data.csv,1,300,76.0,Training at home,,,,,,,,,,,,,
3,9,1910,A,33.196297779969,53.0435252214523,1.65981488899845,0.8332057457810974,A,569.447708025109,Correct,sub_003_day_09_data.csv,1,300,76.0,Training at home,,,,,,,,,,,,,
3,9,1911,A,46.52370013833648,64.15143491874251,2.326185006916824,1.007688383289826,B,564.3436660175212,Incorrect,sub_003_day_09_data.csv,0,300,76.0,Training at home,,,,,,,,,,,,,
3,9,1912,B,86.4035129205977,60.9575469966917,4.320175646029885,0.957518909128306,B,526.1922489735298,Correct,sub_003_day_09_data.csv,1,300,76.0,Training at home,,,,,,,,,,,,,
3,9,1913,B,65.4247235380589,32.68511992053809,3.271236176902945,0.5134166631203193,B,475.7497910177335,Correct,sub_003_day_09_data.csv,1,300,76.0,Training at home,,,,,,,,,,,,,
3,9,1914,A,63.19169903524624,80.75642421415638,3.159584951762312,1.2685189452068728,A,651.755457976833,Correct,sub_003_day_09_data.csv,1,300,76.0,Training at home,,,,,,,,,,,,,
3,9,1915,A,48.60928603622922,71.72018397346929,2.430464301811461,1.1265780154257976,B,1004.6551249688492,Incorrect,sub_003_day_09_data.csv,0,300,76.0,Training at home,,,,,,,,,,,,,
3,9,1916,A,22.954695873547657,37.397540216619376,1.1477347936773827,0.5874391880343014,A,528.2851239899173,Correct,sub_003_day_09_data.csv,1,300,76.0,Training at home,,,,,,,,,,,,,
3,9,1917,B,76.99678246861929,48.17723020803583,3.849839123430964,0.756766162459348,B,473.68745697895065,Correct,sub_003_day_09_data.csv,1,300,76.0,Training at home,,,,,,,,,,,,,
3,9,1918,A,59.46820804841067,81.31108862144535,2.973410402420534,1.2772315933426066,A,577.6714160456322,Correct,sub_003_day_09_data.csv,1,300,76.0,Training at home,,,,,,,,,,,,,
3,9,1919,A,49.11760865028367,57.59489336956421,2.4558804325141836,0.904698469470552,A,947.4766660132444,Correct,sub_003_day_09_data.csv,1,300,76.0,Training at home,,,,,,,,,,,,,
3,9,1920,B,81.78182941552575,57.61095082035,4.089091470776287,0.9049506993176722,B,749.7018330032006,Correct,sub_003_day_09_data.csv,1,300,76.0,Training at home,,,,,,,,,,,,,
3,9,1921,A,34.11746807885479,42.66906785519643,1.7058734039427397,0.6702441505470474,A,617.2729159588926,Correct,sub_003_day_09_data.csv,1,300,76.0,Training at home,,,,,,,,,,,,,
3,9,1922,B,35.35596810411844,13.843586482348744,1.767798405205922,0.2174545479614089,A,953.460916003678,Incorrect,sub_003_day_09_data.csv,0,300,76.0,Training at home,,,,,,,,,,,,,
3,9,1923,B,60.66998681139297,46.770388892379174,3.0334993405696484,0.7346675507491806,B,598.4489159891382,Correct,sub_003_day_09_data.csv,1,300,76.0,Training at home,,,,,,,,,,,,,
3,9,1924,A,25.972296092949577,55.979269415795834,1.298614804647479,0.8793203077499399,A,458.1844579661265,Correct,sub_003_day_09_data.csv,1,300,76.0,Training at home,,,,,,,,,,,,,
3,9,1925,A,40.94386699414878,73.5581354785,2.047193349707439,1.1554484901550917,A,432.84170696279034,Correct,sub_003_day_09_data.csv,1,300,77.0,Training at home,,,,,,,,,,,,,
3,9,1926,B,89.20743445289186,65.76846001277372,4.4603717226445925,1.0330885540702195,B,597.1198739716783,Correct,sub_003_day_09_data.csv,1,300,77.0,Training at home,,,,,,,,,,,,,
3,9,1927,B,44.47200501272224,28.217291002292633,2.223600250636112,0.4432361705850394,B,1370.2562910038978,Correct,sub_003_day_09_data.csv,1,300,77.0,Training at home,,,,,,,,,,,,,
3,9,1928,B,87.18994561669714,68.31272413358909,4.359497280834858,1.073053761423948,B,1252.9992909985594,Correct,sub_003_day_09_data.csv,1,300,77.0,Training at home,,,,,,,,,,,,,
3,9,1929,A,47.46943647067963,59.8562362731202,2.3734718235339813,0.9402195607358468,A,525.83420695737,Correct,sub_003_day_09_data.csv,1,300,77.0,Training at home,,,,,,,,,,,,,
3,9,1930,B,72.62394388814492,58.44665710847923,3.631197194407246,0.9180779429944,B,719.2482080426998,Correct,sub_003_day_09_data.csv,1,300,77.0,Training at home,,,,,,,,,,,,,
3,9,1931,B,62.454430481369506,30.72199216341493,3.122721524068475,0.4825799244211377,B,545.2627910417505,Correct,sub_003_day_09_data.csv,1,300,77.0,Training at home,,,,,,,,,,,,,
3,9,1932,B,64.39541157098782,50.51838700130904,3.21977057854939,0.7935409673725928,B,494.8283740086481,Correct,sub_003_day_09_data.csv,1,300,77.0,Training at home,,,,,,,,,,,,,
3,9,1933,B,58.48718265648185,35.37552450748579,2.9243591328240925,0.5556774395480152,B,400.852749007754,Correct,sub_003_day_09_data.csv,1,300,77.0,Training at home,,,,,,,,,,,,,
3,9,1934,A,17.469373212515045,43.48108077588897,0.8734686606257523,0.6829992196783858,A,508.9006249909289,Correct,sub_003_day_09_data.csv,1,300,77.0,Training at home,,,,,,,,,,,,,
3,9,1935,A,54.91648333154362,75.12624245569519,2.745824166577181,1.1800802569530882,A,1060.8883749810047,Correct,sub_003_day_09_data.csv,1,300,77.0,Training at home,,,,,,,,,,,,,
3,9,1936,B,62.08621254785059,45.730583870057245,3.10431062739253,0.7183343316527188,B,569.9439989984967,Correct,sub_003_day_09_data.csv,1,300,77.0,Training at home,,,,,,,,,,,,,
3,9,1937,A,28.941559054142708,43.36627651517228,1.4470779527071356,0.6811958785680441,A,595.5267489771359,Correct,sub_003_day_09_data.csv,1,300,77.0,Training at home,,,,,,,,,,,,,
3,9,1938,A,56.52152674937868,69.0143585535259,2.8260763374689337,1.0840750091198443,B,652.3207080317661,Incorrect,sub_003_day_09_data.csv,0,300,77.0,Training at home,,,,,,,,,,,,,
3,9,1939,B,66.74071511748217,33.897833215635124,3.3370357558741084,0.5324659190142569,B,585.5737079982646,Correct,sub_003_day_09_data.csv,1,300,77.0,Training at home,,,,,,,,,,,,,
3,9,1940,B,87.0731861461137,61.57383641414889,4.353659307305685,0.9671995606601492,B,500.1556249917485,Correct,sub_003_day_09_data.csv,1,300,77.0,Training at home,,,,,,,,,,,,,
3,9,1941,A,36.67594960938996,55.83489947807526,1.833797480469498,0.877052550071229,A,736.7697500158101,Correct,sub_003_day_09_data.csv,1,300,77.0,Training at home,,,,,,,,,,,,,
3,9,1942,B,73.84570461666469,44.81789670242995,3.692285230833235,0.7039978751485008,B,540.4920829460025,Correct,sub_003_day_09_data.csv,1,300,77.0,Training at home,,,,,,,,,,,,,
3,9,1943,B,80.87825694770811,51.95949129320893,4.043912847385405,0.81617778065504,B,506.2904990045354,Correct,sub_003_day_09_data.csv,1,300,77.0,Training at home,,,,,,,,,,,,,
3,9,1944,B,65.10440967278956,53.455494809144234,3.255220483639478,0.8396769489320743,B,574.1732910391875,Correct,sub_003_day_09_data.csv,1,300,77.0,Training at home,,,,,,,,,,,,,
3,9,1945,B,51.74364380314368,38.032024179040285,2.5871821901571836,0.5974056388101117,B,521.0660820011981,Correct,sub_003_day_09_data.csv,1,300,77.0,Training at home,,,,,,,,,,,,,
3,9,1946,B,56.65382500254709,24.90963785690702,2.8326912501273545,0.3912796764742064,B,1076.7294989782386,Correct,sub_003_day_09_data.csv,1,300,77.0,Training at home,,,,,,,,,,,,,
3,9,1947,A,30.12781863503127,46.84142813567274,1.5063909317515636,0.7357834325734187,A,700.0106240157038,Correct,sub_003_day_09_data.csv,1,300,77.0,Training at home,,,,,,,,,,,,,
3,9,1948,B,80.76917630254987,51.08303868765371,4.038458815127493,0.8024104953208804,B,468.8114579766989,Correct,sub_003_day_09_data.csv,1,300,77.0,Training at home,,,,,,,,,,,,,
3,9,1949,A,65.78772927883858,88.63646140467125,3.2893864639419292,1.392298279945552,A,563.6314160074107,Correct,sub_003_day_09_data.csv,1,300,77.0,Training at home,,,,,,,,,,,,,
3,9,1950,B,37.89400842126297,14.689766914280623,1.8947004210631484,0.230746319104252,A,775.2714999951422,Incorrect,sub_003_day_09_data.csv,0,300,78.0,Training at home,,,,,,,,,,,,,
3,9,1951,B,61.56456399112015,51.42143170484107,3.078228199556008,0.80772596040499,B,1507.5984570430592,Correct,sub_003_day_09_data.csv,1,300,78.0,Training at home,,,,,,,,,,,,,
3,9,1952,B,57.17181089951314,44.33360482015682,2.858590544975657,0.6963906360507884,B,700.5796660087071,Correct,sub_003_day_09_data.csv,1,300,78.0,Training at home,,,,,,,,,,,,,
3,9,1953,B,37.50597688869627,21.83564969553341,1.875298844434813,0.3429935833492398,A,982.4530819896607,Incorrect,sub_003_day_09_data.csv,0,300,78.0,Training at home,,,,,,,,,,,,,
3,9,1954,B,46.38877139552634,31.96554626728799,2.319438569776317,0.502113626606483,B,634.7874570055865,Correct,sub_003_day_09_data.csv,1,300,78.0,Training at home,,,,,,,,,,,,,
3,9,1955,A,58.37829585259585,68.49718285964535,2.9189147926297925,1.0759512323172928,B,1022.2525410354136,Incorrect,sub_003_day_09_data.csv,0,300,78.0,Training at home,,,,,,,,,,,,,
3,9,1956,A,48.00373672235138,62.65002234161395,2.400186836117569,0.984104249678254,A,544.5194159983657,Correct,sub_003_day_09_data.csv,1,300,78.0,Training at home,,,,,,,,,,,,,
3,9,1957,A,13.483077771492413,39.762757149887335,0.6741538885746207,0.6245919287428054,A,555.7706239633262,Correct,sub_003_day_09_data.csv,1,300,78.0,Training at home,,,,,,,,,,,,,
3,9,1958,B,67.23068683972461,54.63650650579517,3.3615343419862307,0.8582282372820852,A,733.4707489935681,Incorrect,sub_003_day_09_data.csv,0,300,78.0,Training at home,,,,,,,,,,,,,
3,9,1959,B,48.268325595416,37.574012757828726,2.4134162797708,0.5902112122294195,A,621.3626660173759,Incorrect,sub_003_day_09_data.csv,0,300,78.0,Training at home,,,,,,,,,,,,,
3,9,1960,A,63.97669034073718,88.33196518640607,3.198834517036859,1.3875152645338134,A,565.4017910128459,Correct,sub_003_day_09_data.csv,1,300,78.0,Training at home,,,,,,,,,,,,,
3,9,1961,B,60.5251749226767,30.19773932201879,3.0262587461338346,0.4743449800453693,B,600.1812070026062,Correct,sub_003_day_09_data.csv,1,300,78.0,Training at home,,,,,,,,,,,,,
3,9,1962,A,19.16810275867026,32.241384470596714,0.9584051379335128,0.5064464829719534,A,504.7416659654118,Correct,sub_003_day_09_data.csv,1,300,78.0,Training at home,,,,,,,,,,,,,
3,9,1963,A,42.815124933538,72.66038123652453,2.1407562466769003,1.1413465994984957,A,838.5411240160465,Correct,sub_003_day_09_data.csv,1,300,78.0,Training at home,,,,,,,,,,,,,
3,9,1964,A,13.76953365011304,35.336276050336565,0.688476682505652,0.5550609262247915,A,817.524540994782,Correct,sub_003_day_09_data.csv,1,300,78.0,Training at home,,,,,,,,,,,,,
3,9,1965,A,29.695030878648353,39.04265087698872,1.4847515439324177,0.6132805258590943,A,890.2819160139188,Correct,sub_003_day_09_data.csv,1,300,78.0,Training at home,,,,,,,,,,,,,
3,9,1966,A,31.964239759532617,55.678680018837646,1.598211987976631,0.8745986605437858,A,550.4177499678917,Correct,sub_003_day_09_data.csv,1,300,78.0,Training at home,,,,,,,,,,,,,
3,9,1967,B,35.28141839082625,12.734347412598066,1.764070919541313,0.2000306613983913,A,2022.422957001254,Incorrect,sub_003_day_09_data.csv,0,300,78.0,Training at home,,,,,,,,,,,,,
3,9,1968,A,66.57974307953023,85.04417036153549,3.3289871539765112,1.3358707041921936,A,936.2119579454884,Correct,sub_003_day_09_data.csv,1,300,78.0,Training at home,,,,,,,,,,,,,
3,9,1969,B,86.5989766899666,66.4189677600764,4.32994883449833,1.043306705870367,B,883.5765410331078,Correct,sub_003_day_09_data.csv,1,300,78.0,Training at home,,,,,,,,,,,,,
3,9,1970,A,20.287675547455994,38.020660843517874,1.0143837773727995,0.5972271439531244,A,691.1716659669764,Correct,sub_003_day_09_data.csv,1,300,78.0,Training at home,,,,,,,,,,,,,
3,9,1971,A,23.82879741132069,50.40834286370587,1.1914398705660345,0.7918123981012692,A,499.75441599963233,Correct,sub_003_day_09_data.csv,1,300,78.0,Training at home,,,,,,,,,,,,,
3,9,1972,B,86.38883333860616,62.188873113467295,4.319441666930308,0.9768605345414832,B,752.1078329882585,Correct,sub_003_day_09_data.csv,1,300,78.0,Training at home,,,,,,,,,,,,,
3,9,1973,A,34.91934242914755,48.60283892270163,1.745967121457377,0.7634516085158377,A,729.7433739877306,Correct,sub_003_day_09_data.csv,1,300,78.0,Training at home,,,,,,,,,,,,,
3,9,1974,A,49.30120134121964,77.46102803900631,2.465060067060982,1.216754983134276,A,1095.9247490391135,Correct,sub_003_day_09_data.csv,1,300,78.0,Training at home,,,,,,,,,,,,,
3,9,1975,A,14.055160247596271,41.607197618328,0.7027580123798137,0.65356433187099,A,587.3791250050999,Correct,sub_003_day_09_data.csv,1,300,79.0,Training at home,,,,,,,,,,,,,
3,9,1976,A,18.518532452595064,38.37216783955165,0.9259266226297532,0.60274860293525,A,628.0332080204971,Correct,sub_003_day_09_data.csv,1,300,79.0,Training at home,,,,,,,,,,,,,
3,9,1977,A,18.09950232759135,35.12166074475332,0.9049751163795676,0.5516897568879503,A,576.6808330081403,Correct,sub_003_day_09_data.csv,1,300,79.0,Training at home,,,,,,,,,,,,,
3,9,1978,A,51.84998061401944,82.49626774051414,2.5924990307009717,1.2958483434108794,A,597.7467080228962,Correct,sub_003_day_09_data.csv,1,300,79.0,Training at home,,,,,,,,,,,,,
3,9,1979,B,56.938036185600936,49.629723075129945,2.846901809280047,0.7795818670626202,B,578.1357910018414,Correct,sub_003_day_09_data.csv,1,300,79.0,Training at home,,,,,,,,,,,,,
3,9,1980,A,33.02054670063442,44.721931875750485,1.6510273350317208,0.7024904631760045,B,510.57191600557417,Incorrect,sub_003_day_09_data.csv,0,300,79.0,Training at home,,,,,,,,,,,,,
3,9,1981,A,35.74595115094406,54.75702943573157,1.7872975575472028,0.8601214070384718,A,921.7496659839526,Correct,sub_003_day_09_data.csv,1,300,79.0,Training at home,,,,,,,,,,,,,
3,9,1982,A,67.11397162599178,87.9306306726734,3.355698581299589,1.3812111167339405,A,1410.856165981386,Correct,sub_003_day_09_data.csv,1,300,79.0,Training at home,,,,,,,,,,,,,
3,9,1983,A,41.376491384488446,64.2595416495704,2.0688245692244225,1.0093865198466885,A,1218.6458330252208,Correct,sub_003_day_09_data.csv,1,300,79.0,Training at home,,,,,,,,,,,,,
3,9,1984,B,64.44002270695958,50.467528113477535,3.2220011353479787,0.7927420778306867,B,662.3539580032229,Correct,sub_003_day_09_data.csv,1,300,79.0,Training at home,,,,,,,,,,,,,
3,9,1985,A,31.234819060827352,53.42548390697149,1.5617409530413675,0.8392055387831069,A,500.08829100988805,Correct,sub_003_day_09_data.csv,1,300,79.0,Training at home,,,,,,,,,,,,,
3,9,1986,B,50.92726336247601,23.657088083398403,2.5463631681238006,0.3716046706406552,B,1274.0578330121934,Correct,sub_003_day_09_data.csv,1,300,79.0,Training at home,,,,,,,,,,,,,
3,9,1987,B,66.37173902793721,34.76774289190417,3.3185869513968607,0.5461304282555244,B,656.5817070077173,Correct,sub_003_day_09_data.csv,1,300,79.0,Training at home,,,,,,,,,,,,,
3,9,1988,A,16.690990784352557,41.04650241100662,0.8345495392176278,0.6447569521498706,A,710.907124041114,Correct,sub_003_day_09_data.csv,1,300,79.0,Training at home,,,,,,,,,,,,,
3,9,1989,B,31.526596012991973,11.678475162705432,1.5763298006495987,0.1834450588814312,A,1450.0235409941524,Incorrect,sub_003_day_09_data.csv,0,300,79.0,Training at home,,,,,,,,,,,,,
3,9,1990,A,38.586446445931834,52.97503923832362,1.929322322296592,0.8321299704737424,A,913.9677910134196,Correct,sub_003_day_09_data.csv,1,300,79.0,Training at home,,,,,,,,,,,,,
3,9,1991,B,64.43836085761667,42.90311857015,3.2219180428808336,0.6739206105803753,B,807.4677910190076,Correct,sub_003_day_09_data.csv,1,300,79.0,Training at home,,,,,,,,,,,,,
3,9,1992,B,81.5125313283389,52.3709730292819,4.075626566416945,0.8226413206507059,B,966.1237489781342,Correct,sub_003_day_09_data.csv,1,300,79.0,Training at home,,,,,,,,,,,,,
3,9,1993,B,75.28486270485713,55.47721139704805,3.764243135242857,0.8714339988330705,B,463.98537402274087,Correct,sub_003_day_09_data.csv,1,300,79.0,Training at home,,,,,,,,,,,,,
3,9,1994,B,59.7040886363767,40.9779382474557,2.9852044318188353,0.643679948787315,B,707.0052909548394,Correct,sub_003_day_09_data.csv,1,300,79.0,Training at home,,,,,,,,,,,,,
3,9,1995,A,54.73559444778133,76.94001976909932,2.7367797223890657,1.2085710043682796,A,784.2625820194371,Correct,sub_003_day_09_data.csv,1,300,79.0,Training at home,,,,,,,,,,,,,
3,9,1996,A,23.37977933579147,49.178691793233824,1.1689889667895734,0.7724970842539002,A,580.5543739697896,Correct,sub_003_day_09_data.csv,1,300,79.0,Training at home,,,,,,,,,,,,,
3,9,1997,A,60.14369441279183,71.93211480394845,3.0071847206395916,1.12990701712631,A,2149.428083037492,Correct,sub_003_day_09_data.csv,1,300,79.0,Training at home,,,,,,,,,,,,,
3,9,1998,A,43.92085943166128,51.75904135971788,2.196042971583064,0.8130291204626998,B,2350.515583006199,Incorrect,sub_003_day_09_data.csv,0,300,79.0,Training at home,,,,,,,,,,,,,
3,9,1999,A,46.174824054318385,58.55626757238258,2.308741202715919,0.9197997001351768,A,764.8761660093442,Correct,sub_003_day_09_data.csv,1,300,79.0,Training at home,,,,,,,,,,,,,
3,9,2000,B,61.55895517876392,31.877524454101405,3.077947758938196,0.5007309831981698,B,642.4713319865987,Correct,sub_003_day_09_data.csv,1,300,80.0,Training at home,,,,,,,,,,,,,
3,9,2001,B,68.64204003515971,45.99800627905597,3.4321020017579853,0.7225349930302971,B,671.138582052663,Correct,sub_003_day_09_data.csv,1,300,80.0,Training at home,,,,,,,,,,,,,
3,9,2002,A,38.668780206010915,59.20679409491137,1.933439010300546,0.9300181468558856,A,1001.0198329691776,Correct,sub_003_day_09_data.csv,1,300,80.0,Training at home,,,,,,,,,,,,,
3,9,2003,B,84.9759080248863,61.915797992009,4.2487954012443145,0.9725710805642256,B,631.8824989721179,Correct,sub_003_day_09_data.csv,1,300,80.0,Training at home,,,,,,,,,,,,,
3,9,2004,B,57.582073006449725,39.86929094862451,2.8791036503224863,0.6262653577401639,B,504.13716601906344,Correct,sub_003_day_09_data.csv,1,300,80.0,Training at home,,,,,,,,,,,,,
3,9,2005,A,27.76130318211318,42.113154324169784,1.388065159105659,0.661511881221525,A,581.6517489729449,Correct,sub_003_day_09_data.csv,1,300,80.0,Training at home,,,,,,,,,,,,,
3,9,2006,A,57.03534345215208,64.976241225957,2.8517671726076035,1.0206444104667236,B,452.5968750240281,Incorrect,sub_003_day_09_data.csv,0,300,80.0,Training at home,,,,,,,,,,,,,
3,9,2007,A,28.92584681924182,38.62937809817343,1.4462923409620911,0.6067888522298206,A,419.5048749679699,Correct,sub_003_day_09_data.csv,1,300,80.0,Training at home,,,,,,,,,,,,,
3,9,2008,B,33.4107574579795,19.289122077193547,1.670537872898975,0.3029928210595397,A,812.6596660003997,Incorrect,sub_003_day_09_data.csv,0,300,80.0,Training at home,,,,,,,,,,,,,
3,9,2009,A,46.770288740785944,77.58143547980038,2.338514437039297,1.2186463387914568,A,698.8679579808377,Correct,sub_003_day_09_data.csv,1,300,80.0,Training at home,,,,,,,,,,,,,
3,9,2010,B,48.05292299716292,38.54532148882461,2.402646149858146,0.6054684940977408,B,744.1296659526415,Correct,sub_003_day_09_data.csv,1,300,80.0,Training at home,,,,,,,,,,,,,
3,9,2011,A,63.800923517864376,89.04032476349687,3.190046175893219,1.3986421507512554,A,577.498790982645,Correct,sub_003_day_09_data.csv,1,300,80.0,Training at home,,,,,,,,,,,,,
3,9,2012,A,59.10983711546763,76.54919140025456,2.955491855773381,1.2024318867063934,B,2273.5124159953557,Incorrect,sub_003_day_09_data.csv,0,300,80.0,Training at home,,,,,,,,,,,,,
3,9,2013,B,50.29369982728013,37.286301012996425,2.5146849913640064,0.5856918467098361,B,556.0177909792401,Correct,sub_003_day_09_data.csv,1,300,80.0,Training at home,,,,,,,,,,,,,
3,9,2014,A,19.32659149066005,37.09909443372608,0.9663295745330024,0.5827512126391392,A,660.9172910102643,Correct,sub_003_day_09_data.csv,1,300,80.0,Training at home,,,,,,,,,,,,,
3,9,2015,A,35.25041259155064,55.249879957451576,1.762520629577532,0.8678630849302391,A,1232.6694990042597,Correct,sub_003_day_09_data.csv,1,300,80.0,Training at home,,,,,,,,,,,,,
3,9,2016,B,35.161697948804445,16.576873441680444,1.758084897440222,0.2603889191193552,A,730.4604160017334,Incorrect,sub_003_day_09_data.csv,0,300,80.0,Training at home,,,,,,,,,,,,,
3,9,2017,B,40.26535201638622,21.87111172634427,2.0132676008193107,0.3435506196266237,A,689.7379160509445,Incorrect,sub_003_day_09_data.csv,0,300,80.0,Training at home,,,,,,,,,,,,,
3,9,2018,A,40.93303536384807,53.97277455345485,2.0466517681924032,0.8478023601549595,A,1373.6407909891568,Correct,sub_003_day_09_data.csv,1,300,80.0,Training at home,,,,,,,,,,,,,
3,9,2019,B,67.20537375934781,43.86947829516632,3.36026868796739,0.6891001536445569,B,543.87733299518,Correct,sub_003_day_09_data.csv,1,300,80.0,Training at home,,,,,,,,,,,,,
3,9,2020,A,33.25316734285674,50.462210246353024,1.662658367142837,0.7926585449692312,A,803.7115409970284,Correct,sub_003_day_09_data.csv,1,300,80.0,Training at home,,,,,,,,,,,,,
3,9,2021,B,55.56232132141649,36.798584317292935,2.7781160660708246,0.5780308107685603,B,449.6166660101153,Correct,sub_003_day_09_data.csv,1,300,80.0,Training at home,,,,,,,,,,,,,
3,9,2022,B,83.77180198526354,61.45767494393046,4.188590099263177,0.9653749005528072,B,1372.7931239991449,Correct,sub_003_day_09_data.csv,1,300,80.0,Training at home,,,,,,,,,,,,,
3,9,2023,B,40.95284864575413,19.29643275971967,2.0476424322877067,0.3031076569921237,A,1731.0748330201022,Incorrect,sub_003_day_09_data.csv,0,300,80.0,Training at home,,,,,,,,,,,,,
3,9,2024,A,14.04905070058497,34.74997428047425,0.7024525350292485,0.5458513195598608,A,424.42558298353106,Correct,sub_003_day_09_data.csv,1,300,80.0,Training at home,,,,,,,,,,,,,
3,9,2025,A,36.346030573197304,69.28369399696948,1.8173015286598653,1.0883057203722128,A,802.1469159866683,Correct,sub_003_day_09_data.csv,1,300,81.0,Training at home,,,,,,,,,,,,,
3,9,2026,B,69.92457029646215,57.353290503798355,3.4962285148231076,0.9009033805296708,B,852.9092490207404,Correct,sub_003_day_09_data.csv,1,300,81.0,Training at home,,,,,,,,,,,,,
3,9,2027,B,56.65482366081154,31.87774405472411,2.832741183040577,0.5007344326766849,B,1130.7088749599643,Correct,sub_003_day_09_data.csv,1,300,81.0,Training at home,,,,,,,,,,,,,
3,9,2028,A,31.979902158819336,49.09334926217291,1.5989951079409668,0.7711565269108015,A,559.5605830312707,Correct,sub_003_day_09_data.csv,1,300,81.0,Training at home,,,,,,,,,,,,,
3,9,2029,A,61.93993871598617,82.8928348561882,3.096996935799309,1.302077605097164,A,1053.840290987864,Correct,sub_003_day_09_data.csv,1,300,81.0,Training at home,,,,,,,,,,,,,
3,9,2030,B,64.89907247948477,48.06386971063728,3.2449536239742383,0.7549854999301753,B,490.7474159845151,Correct,sub_003_day_09_data.csv,1,300,81.0,Training at home,,,,,,,,,,,,,
3,9,2031,B,52.609217316087786,43.51570301301642,2.6304608658043893,0.6835430645074381,B,492.60520801180974,Correct,sub_003_day_09_data.csv,1,300,81.0,Training at home,,,,,,,,,,,,,
3,9,2032,A,34.750801552440514,62.879205014403794,1.7375400776220258,0.9877042426840872,A,678.1228330219164,Correct,sub_003_day_09_data.csv,1,300,81.0,Training at home,,,,,,,,,,,,,
3,9,2033,B,42.986072904117705,22.13084179718245,2.149303645205885,0.3476304500389316,B,777.3220830131322,Correct,sub_003_day_09_data.csv,1,300,81.0,Training at home,,,,,,,,,,,,,
3,9,2034,B,88.17698126145167,64.48566904017923,4.408849063072584,1.0129385205922492,B,453.9556240197271,Correct,sub_003_day_09_data.csv,1,300,81.0,Training at home,,,,,,,,,,,,,
3,9,2035,B,79.40284704113128,59.881604681544786,3.970142352056564,0.9406180467635462,B,641.4717070292681,Correct,sub_003_day_09_data.csv,1,300,81.0,Training at home,,,,,,,,,,,,,
3,9,2036,B,48.53322440578954,22.926515189902187,2.426661220289477,0.3601288584650575,B,516.1158739938401,Correct,sub_003_day_09_data.csv,1,300,81.0,Training at home,,,,,,,,,,,,,
3,9,2037,A,62.66537760911376,76.33027177471077,3.133268880455688,1.1989931052697185,A,535.0450000260025,Correct,sub_003_day_09_data.csv,1,300,81.0,Training at home,,,,,,,,,,,,,
3,9,2038,A,28.398875049459104,39.06292456776435,1.4199437524729552,0.6135989842491036,A,800.2896659891121,Correct,sub_003_day_09_data.csv,1,300,81.0,Training at home,,,,,,,,,,,,,
3,9,2039,B,50.109180198789055,23.028554163970725,2.505459009939453,0.3617316829216253,B,777.5193330016918,Correct,sub_003_day_09_data.csv,1,300,81.0,Training at home,,,,,,,,,,,,,
3,9,2040,B,61.46970410609632,29.836302579727537,3.0734852053048156,0.4686675449737711,B,933.2053330144844,Correct,sub_003_day_09_data.csv,1,300,81.0,Training at home,,,,,,,,,,,,,
3,9,2041,A,46.35556237956026,74.95267528185855,2.3177781189780133,1.1773538701619404,A,1357.8791239997372,Correct,sub_003_day_09_data.csv,1,300,81.0,Training at home,,,,,,,,,,,,,
3,9,2042,A,19.1508952357127,45.47084453231557,0.957544761785635,0.714254355676231,A,577.8916660347022,Correct,sub_003_day_09_data.csv,1,300,81.0,Training at home,,,,,,,,,,,,,
3,9,2043,A,47.4166926268016,78.8269806713457,2.3708346313400797,1.2382113169088211,A,532.2273330530152,Correct,sub_003_day_09_data.csv,1,300,81.0,Training at home,,,,,,,,,,,,,
3,9,2044,A,38.129797027124546,64.24193262003838,1.9064898513562272,1.0091099178576153,A,555.3740410250612,Correct,sub_003_day_09_data.csv,1,300,81.0,Training at home,,,,,,,,,,,,,
3,9,2045,B,81.56649499851997,56.40085325830688,4.078324749925998,0.8859425312624641,A,1475.8842490264217,Incorrect,sub_003_day_09_data.csv,0,300,81.0,Training at home,,,,,,,,,,,,,
3,9,2046,A,46.18559925491701,57.89355225234117,2.3092799627458502,0.9093897922308594,A,470.95516603440046,Correct,sub_003_day_09_data.csv,1,300,81.0,Training at home,,,,,,,,,,,,,
3,9,2047,A,22.788387063192378,52.233719045499306,1.1394193531596188,0.8204853401150694,A,478.3250409527682,Correct,sub_003_day_09_data.csv,1,300,81.0,Training at home,,,,,,,,,,,,,
3,9,2048,A,30.27014413360004,45.14203247650631,1.5135072066800022,0.7090893879815203,A,1054.1232079849578,Correct,sub_003_day_09_data.csv,1,300,81.0,Training at home,,,,,,,,,,,,,
3,9,2049,A,41.5321138528557,68.65707487395164,2.076605692642785,1.078462810204854,A,1147.4757909891196,Correct,sub_003_day_09_data.csv,1,300,81.0,Training at home,,,,,,,,,,,,,
3,9,2050,B,71.39258140214693,46.2153644013166,3.569629070107346,0.7259492464307574,B,1141.3372490205802,Correct,sub_003_day_09_data.csv,1,300,82.0,Training at home,,,,,,,,,,,,,
3,9,2051,A,12.33489362000956,38.45134477790607,0.616744681000478,0.6039923113745899,A,798.6659159651026,Correct,sub_003_day_09_data.csv,1,300,82.0,Training at home,,,,,,,,,,,,,
3,9,2052,B,82.1832292570092,67.46717145809339,4.1091614628504605,1.0597718510561458,B,1283.1227499991655,Correct,sub_003_day_09_data.csv,1,300,82.0,Training at home,,,,,,,,,,,,,
3,9,2053,B,71.44816714772716,62.24830489558906,3.5724083573863585,0.9777940867920007,B,629.4542909599841,Correct,sub_003_day_09_data.csv,1,300,82.0,Training at home,,,,,,,,,,,,,
3,9,2054,A,43.23181403923415,57.18668014829028,2.161590701961708,0.8982862711852899,B,415.5936659662984,Incorrect,sub_003_day_09_data.csv,0,300,82.0,Training at home,,,,,,,,,,,,,
3,9,2055,B,45.7233642903378,34.063739544720775,2.28616821451689,0.5350719695374545,A,911.2076660385356,Incorrect,sub_003_day_09_data.csv,0,300,82.0,Training at home,,,,,,,,,,,,,
3,9,2056,B,77.62267063322355,48.416477483572166,3.8811335316611775,0.7605242498754298,B,538.887833012268,Correct,sub_003_day_09_data.csv,1,300,82.0,Training at home,,,,,,,,,,,,,
3,9,2057,B,65.90213107178138,32.95507626207636,3.295106553589069,0.5176571274171523,B,666.4971249992959,Correct,sub_003_day_09_data.csv,1,300,82.0,Training at home,,,,,,,,,,,,,
3,9,2058,A,25.53017098505363,47.82904628014773,1.2765085492526815,0.7512969021095915,A,1402.293624007143,Correct,sub_003_day_09_data.csv,1,300,82.0,Training at home,,,,,,,,,,,,,
3,9,2059,A,61.421806987809745,85.96340062415774,3.0710903493904875,1.3503099393922509,A,581.3007910037413,Correct,sub_003_day_09_data.csv,1,300,82.0,Training at home,,,,,,,,,,,,,
3,9,2060,A,58.98455754462432,76.00036144750467,2.9492278772312157,1.193810885968248,A,678.0995409935713,Correct,sub_003_day_09_data.csv,1,300,82.0,Training at home,,,,,,,,,,,,,
3,9,2061,B,48.69682094267505,30.548856281276713,2.434841047133753,0.4798603123441466,B,603.2029580092058,Correct,sub_003_day_09_data.csv,1,300,82.0,Training at home,,,,,,,,,,,,,
3,9,2062,B,75.2420873498166,48.59733975888156,3.7621043674908297,0.7633652278525475,B,850.9732490056194,Correct,sub_003_day_09_data.csv,1,300,82.0,Training at home,,,,,,,,,,,,,
3,9,2063,A,26.14528846054862,42.36121752018888,1.3072644230274308,0.6654084487927231,A,601.0024989955127,Correct,sub_003_day_09_data.csv,1,300,82.0,Training at home,,,,,,,,,,,,,
3,9,2064,B,80.32871183230931,57.10939808067556,4.0164355916154655,0.8970723273059268,B,590.4032069956884,Correct,sub_003_day_09_data.csv,1,300,82.0,Training at home,,,,,,,,,,,,,
3,9,2065,B,64.01747044761491,45.787113393708786,3.200873522380746,0.7192222953337918,B,532.70604100544,Correct,sub_003_day_09_data.csv,1,300,82.0,Training at home,,,,,,,,,,,,,
3,9,2066,A,12.408028524052792,32.85569705440845,0.6204014262026396,0.516096082473507,A,773.818832996767,Correct,sub_003_day_09_data.csv,1,300,82.0,Training at home,,,,,,,,,,,,,
3,9,2067,A,16.624595780573177,39.5425763280292,0.8312297890286588,0.621133336480751,A,444.88695700420067,Correct,sub_003_day_09_data.csv,1,300,82.0,Training at home,,,,,,,,,,,,,
3,9,2068,B,50.9415135114478,26.370124924295737,2.54707567557239,0.4142209536820629,B,582.6272910344414,Correct,sub_003_day_09_data.csv,1,300,82.0,Training at home,,,,,,,,,,,,,
3,9,2069,A,43.7632424128975,57.95179272374503,2.188162120644875,0.9103046314163792,A,610.0460410234518,Correct,sub_003_day_09_data.csv,1,300,82.0,Training at home,,,,,,,,,,,,,
3,9,2070,A,39.78412430723337,55.45765804229729,1.9892062153616683,0.8711268554548803,A,509.3049990246072,Correct,sub_003_day_09_data.csv,1,300,82.0,Training at home,,,,,,,,,,,,,
3,9,2071,B,61.93160032768114,39.207364635513215,3.096580016384057,0.6158678435277228,B,465.1422500028275,Correct,sub_003_day_09_data.csv,1,300,82.0,Training at home,,,,,,,,,,,,,
3,9,2072,B,51.223941942901845,25.33355461210268,2.561197097145092,0.397938545293488,B,503.7874570116401,Correct,sub_003_day_09_data.csv,1,300,82.0,Training at home,,,,,,,,,,,,,
3,9,2073,A,32.07418380152206,47.99278865832359,1.603709190076103,0.7538689613713847,A,705.1272080279887,Correct,sub_003_day_09_data.csv,1,300,82.0,Training at home,,,,,,,,,,,,,
3,9,2074,B,45.166108643406616,20.36572806790104,2.258305432170331,0.3199041084156268,B,620.0885829748586,Correct,sub_003_day_09_data.csv,1,300,82.0,Training at home,,,,,,,,,,,,,
3,9,2075,A,23.889141627561308,53.8735270724639,1.1944570813780655,0.8462433843691172,A,531.0998319764622,Correct,sub_003_day_09_data.csv,1,300,83.0,Training at home,,,,,,,,,,,,,
3,9,2076,A,32.02540566437215,58.70480921707426,1.6012702832186076,0.9221329868337544,A,459.9989569978789,Correct,sub_003_day_09_data.csv,1,300,83.0,Training at home,,,,,,,,,,,,,
3,9,2077,A,22.634570246385746,41.393016011883205,1.1317285123192873,0.6501999750642847,A,513.271750009153,Correct,sub_003_day_09_data.csv,1,300,83.0,Training at home,,,,,,,,,,,,,
3,9,2078,A,49.095976088731774,78.5824514106379,2.4547988044365887,1.2343702602636846,A,517.439583025407,Correct,sub_003_day_09_data.csv,1,300,83.0,Training at home,,,,,,,,,,,,,
3,9,2079,A,23.83843219121255,47.59517836373784,1.1919216095606275,0.7476233134690735,A,453.5121240187436,Correct,sub_003_day_09_data.csv,1,300,83.0,Training at home,,,,,,,,,,,,,
3,9,2080,B,54.96716240523616,39.53210750387121,2.748358120261808,0.6209688925754187,B,704.3397910310887,Correct,sub_003_day_09_data.csv,1,300,83.0,Training at home,,,,,,,,,,,,,
3,9,2081,B,61.07230973724563,33.188346117878794,3.053615486862282,0.5213213217436168,A,615.0454569724388,Incorrect,sub_003_day_09_data.csv,0,300,83.0,Training at home,,,,,,,,,,,,,
3,9,2082,A,36.798216900732555,57.26858953474878,1.8399108450366275,0.8995729008190803,A,759.6513329772279,Correct,sub_003_day_09_data.csv,1,300,83.0,Training at home,,,,,,,,,,,,,
3,9,2083,A,37.23743318654356,69.7285273858908,1.8618716593271785,1.0952931469057463,B,709.3265830189921,Incorrect,sub_003_day_09_data.csv,0,300,83.0,Training at home,,,,,,,,,,,,,
3,9,2084,B,79.16250014973267,51.40037969365205,3.958125007486633,0.8073952761865163,B,582.8876660089009,Correct,sub_003_day_09_data.csv,1,300,83.0,Training at home,,,,,,,,,,,,,
3,9,2085,B,52.41759680030282,39.834021959110366,2.620879840015141,0.625711353748378,B,535.6100829667412,Correct,sub_003_day_09_data.csv,1,300,83.0,Training at home,,,,,,,,,,,,,
3,9,2086,B,44.36080998139217,34.05904110266023,2.2180404990696085,0.5349981665821508,B,615.560915961396,Correct,sub_003_day_09_data.csv,1,300,83.0,Training at home,,,,,,,,,,,,,
3,9,2087,A,57.37507763015996,65.04597582023197,2.8687538815079976,1.0217397989121002,B,571.636373992078,Incorrect,sub_003_day_09_data.csv,0,300,83.0,Training at home,,,,,,,,,,,,,
3,9,2088,A,40.806780874831354,64.24018283022902,2.0403390437415676,1.0090824322235632,B,564.1093330341391,Incorrect,sub_003_day_09_data.csv,0,300,83.0,Training at home,,,,,,,,,,,,,
3,9,2089,A,19.590624846305076,38.058707852256674,0.9795312423152538,0.5978247849688486,A,565.4031239682809,Correct,sub_003_day_09_data.csv,1,300,83.0,Training at home,,,,,,,,,,,,,
3,9,2090,A,21.997557183064405,39.19760864163794,1.09987785915322,0.6157145967342877,A,505.2727910224348,Correct,sub_003_day_09_data.csv,1,300,83.0,Training at home,,,,,,,,,,,,,
3,9,2091,B,41.84228228499571,20.223648413516855,2.0921141142497857,0.3176723264234371,B,561.0881659667939,Correct,sub_003_day_09_data.csv,1,300,83.0,Training at home,,,,,,,,,,,,,
3,9,2092,B,39.12557303281156,27.284126755570057,1.956278651640578,0.428578060874558,B,628.467875008937,Correct,sub_003_day_09_data.csv,1,300,83.0,Training at home,,,,,,,,,,,,,
3,9,2093,B,60.51709728897394,51.83451960923894,3.0258548644486973,0.8142147300337056,B,885.5947909760289,Correct,sub_003_day_09_data.csv,1,300,83.0,Training at home,,,,,,,,,,,,,
3,9,2094,A,18.029698145645305,48.96937374606883,0.9014849072822654,0.7692091240577136,A,533.4690829622559,Correct,sub_003_day_09_data.csv,1,300,83.0,Training at home,,,,,,,,,,,,,
3,9,2095,B,59.226499092848435,35.5852751659059,2.961324954642422,0.5589721951859064,B,491.54316599015146,Correct,sub_003_day_09_data.csv,1,300,83.0,Training at home,,,,,,,,,,,,,
3,9,2096,A,66.22788948530366,82.9000179274837,3.311394474265183,1.3021904365172248,A,568.0709989974275,Correct,sub_003_day_09_data.csv,1,300,83.0,Training at home,,,,,,,,,,,,,
3,9,2097,A,40.35354922047027,62.55883130581362,2.0176774610235135,0.9826718242375362,A,1546.843624964822,Correct,sub_003_day_09_data.csv,1,300,83.0,Training at home,,,,,,,,,,,,,
3,9,2098,B,39.34653091860668,29.908764785667447,1.967326545930334,0.4698057786429898,B,820.6780820037238,Correct,sub_003_day_09_data.csv,1,300,83.0,Training at home,,,,,,,,,,,,,
3,9,2099,B,63.25507669883052,51.3593280209853,3.162753834941526,0.8067504380201792,B,696.0233739810064,Correct,sub_003_day_09_data.csv,1,300,83.0,Training at home,,,,,,,,,,,,,
