subject,day,trial,cat,x,y,xt,yt,resp,rt,fb,f_name,acc,n_trials,block,session_type,ns_left_digit,ns_right_digit,ns_left_size,ns_right_size,ns_congruent,ns_cue,ns_correct_side,ns_resp,ns_rt,ns_fb,acc_stroop,acc_stroop_mean,resp_key
3,12,2400,B,67.74631324313543,51.051142049842205,3.3873156621567717,0.8019094641057661,B,573.3827920048498,Correct,sub_003_day_12_data.csv,1,300,96.0,Training at home,,,,,,,,,,,,,
3,12,2401,A,36.28555994169985,66.67100640696853,1.8142779970849927,1.0472657196778516,A,654.4193340232596,Correct,sub_003_day_12_data.csv,1,300,96.0,Training at home,,,,,,,,,,,,,
3,12,2402,B,66.53213555582384,50.08604871997835,3.3266067777911923,0.7867498135301222,B,446.5569999883882,Correct,sub_003_day_12_data.csv,1,300,96.0,Training at home,,,,,,,,,,,,,
3,12,2403,B,83.74888213920092,64.52017574911933,4.187444106960046,1.0134805507087783,B,503.3964579924941,Correct,sub_003_day_12_data.csv,1,300,96.0,Training at home,,,,,,,,,,,,,
3,12,2404,A,29.05193453519654,50.012617952462115,1.452596726759827,0.7855963657312399,A,545.5547500168905,Correct,sub_003_day_12_data.csv,1,300,96.0,Training at home,,,,,,,,,,,,,
3,12,2405,B,38.86424135965418,19.236298894855413,1.9432120679827092,0.302163076451676,B,1555.4965839837678,Correct,sub_003_day_12_data.csv,1,300,96.0,Training at home,,,,,,,,,,,,,
3,12,2406,A,27.60993644689282,42.439753451916985,1.3804968223446412,0.6666420883235222,A,567.1705420245416,Correct,sub_003_day_12_data.csv,1,300,96.0,Training at home,,,,,,,,,,,,,
3,12,2407,A,35.23206227376823,43.97618609762237,1.7616031136884116,0.6907763158859401,A,1478.7445419933647,Correct,sub_003_day_12_data.csv,1,300,96.0,Training at home,,,,,,,,,,,,,
3,12,2408,A,64.02934479521515,77.08426752275052,3.2014672397607575,1.2108368427841163,A,973.8141659763642,Correct,sub_003_day_12_data.csv,1,300,96.0,Training at home,,,,,,,,,,,,,
3,12,2409,B,42.452155619088515,18.91282202492565,2.1226077809544255,0.2970819136607883,B,652.5288330158219,Correct,sub_003_day_12_data.csv,1,300,96.0,Training at home,,,,,,,,,,,,,
3,12,2410,B,65.57383527733839,50.85711527290645,3.2786917638669193,0.7988616986206608,B,770.0939170317724,Correct,sub_003_day_12_data.csv,1,300,96.0,Training at home,,,,,,,,,,,,,
3,12,2411,B,59.14290721056161,31.525970067472667,2.9571453605280804,0.4952087798063191,B,476.3767920085229,Correct,sub_003_day_12_data.csv,1,300,96.0,Training at home,,,,,,,,,,,,,
3,12,2412,B,45.14447704564408,24.385928800067887,2.2572238522822037,0.3830532738462852,B,650.5045830272138,Correct,sub_003_day_12_data.csv,1,300,96.0,Training at home,,,,,,,,,,,,,
3,12,2413,A,50.04624560112797,80.04402424228626,2.5023122800563984,1.2573285926166489,A,563.7055420083925,Correct,sub_003_day_12_data.csv,1,300,96.0,Training at home,,,,,,,,,,,,,
3,12,2414,B,60.99709029644518,40.47295801643342,3.0498545148222593,0.6357477378673768,B,446.2841660133563,Correct,sub_003_day_12_data.csv,1,300,96.0,Training at home,,,,,,,,,,,,,
3,12,2415,B,41.426986401287344,14.780437411467314,2.071349320064367,0.2321705679435472,B,840.5058750067838,Correct,sub_003_day_12_data.csv,1,300,96.0,Training at home,,,,,,,,,,,,,
3,12,2416,B,36.831389947241085,20.95145710480376,1.8415694973620544,0.3291047186122658,B,791.70304100262,Correct,sub_003_day_12_data.csv,1,300,96.0,Training at home,,,,,,,,,,,,,
3,12,2417,A,21.928976196040313,48.8946546149758,1.0964488098020155,0.7680354386910913,A,1082.901666988619,Correct,sub_003_day_12_data.csv,1,300,96.0,Training at home,,,,,,,,,,,,,
3,12,2418,A,57.4881436851203,73.14379621478258,2.874407184256015,1.1489400642201493,A,629.3332499917597,Correct,sub_003_day_12_data.csv,1,300,96.0,Training at home,,,,,,,,,,,,,
3,12,2419,A,55.60363048099926,72.23713193360948,2.7801815240499628,1.1346982149951208,A,682.6418749988079,Correct,sub_003_day_12_data.csv,1,300,96.0,Training at home,,,,,,,,,,,,,
3,12,2420,B,81.22466617407167,58.88950672038209,4.061233308703583,0.9250342084313956,B,622.7915000054054,Correct,sub_003_day_12_data.csv,1,300,96.0,Training at home,,,,,,,,,,,,,
3,12,2421,A,35.22104691953137,48.504712142523175,1.7610523459765686,0.7619102366571923,A,519.6230000001378,Correct,sub_003_day_12_data.csv,1,300,96.0,Training at home,,,,,,,,,,,,,
3,12,2422,A,52.131137324394885,67.72643677220839,2.6065568662197443,1.0638443810869176,A,1993.862207978964,Correct,sub_003_day_12_data.csv,1,300,96.0,Training at home,,,,,,,,,,,,,
3,12,2423,B,43.824151768167035,30.514965952074192,2.1912075884083517,0.4793279642978947,B,500.51033397903666,Correct,sub_003_day_12_data.csv,1,300,96.0,Training at home,,,,,,,,,,,,,
3,12,2424,A,58.85033158087933,70.77213769824769,2.9425165790439665,1.111686139358301,A,892.746708006598,Correct,sub_003_day_12_data.csv,1,300,96.0,Training at home,,,,,,,,,,,,,
3,12,2425,A,29.69707156255656,51.12535872444363,1.484853578127828,0.8030752569042747,A,593.8655830104835,Correct,sub_003_day_12_data.csv,1,300,97.0,Training at home,,,,,,,,,,,,,
3,12,2426,B,85.99260775090622,62.56123091383641,4.299630387545311,0.9827095171922158,B,476.48529103025794,Correct,sub_003_day_12_data.csv,1,300,97.0,Training at home,,,,,,,,,,,,,
3,12,2427,A,21.509212023744123,35.213175744149765,1.075460601187206,0.5531272711369359,A,886.7246249574237,Correct,sub_003_day_12_data.csv,1,300,97.0,Training at home,,,,,,,,,,,,,
3,12,2428,A,29.792250710663595,61.64509763177077,1.48961253553318,0.968318929248983,A,740.6921249930747,Correct,sub_003_day_12_data.csv,1,300,97.0,Training at home,,,,,,,,,,,,,
3,12,2429,A,49.03335349916371,62.36949892504168,2.4516676749581854,0.9796977981549374,A,2051.1233750148676,Correct,sub_003_day_12_data.csv,1,300,97.0,Training at home,,,,,,,,,,,,,
3,12,2430,A,31.043409930997292,52.49478832280212,1.5521704965498646,0.824586206733332,A,769.9042090098374,Correct,sub_003_day_12_data.csv,1,300,97.0,Training at home,,,,,,,,,,,,,
3,12,2431,B,72.35389475637929,55.290886770729344,3.617694737818965,0.8685072184469419,B,494.1150830127299,Correct,sub_003_day_12_data.csv,1,300,97.0,Training at home,,,,,,,,,,,,,
3,12,2432,A,26.360349747910785,58.6276321031775,1.3180174873955393,0.9209206915635376,A,488.92550001619384,Correct,sub_003_day_12_data.csv,1,300,97.0,Training at home,,,,,,,,,,,,,
3,12,2433,A,60.610901321563944,85.27915480494072,3.0305450660781967,1.3395618311977424,A,577.3464579833671,Correct,sub_003_day_12_data.csv,1,300,97.0,Training at home,,,,,,,,,,,,,
3,12,2434,A,16.685002734934077,36.00219315377545,0.8342501367467038,0.5655211276251085,A,491.9122089631855,Correct,sub_003_day_12_data.csv,1,300,97.0,Training at home,,,,,,,,,,,,,
3,12,2435,B,31.581652850125696,14.17571356150821,1.579082642506285,0.2226715879211369,B,1490.8190000569448,Correct,sub_003_day_12_data.csv,1,300,97.0,Training at home,,,,,,,,,,,,,
3,12,2436,B,67.2802383032516,47.20171828414691,3.36401191516258,0.7414428569914547,B,1061.7694579996169,Correct,sub_003_day_12_data.csv,1,300,97.0,Training at home,,,,,,,,,,,,,
3,12,2437,B,80.72357861931926,64.33978252072588,4.036178930965963,1.010646940503387,B,793.0481250514276,Correct,sub_003_day_12_data.csv,1,300,97.0,Training at home,,,,,,,,,,,,,
3,12,2438,B,50.01241555328639,33.70812848092588,2.5006207776643192,0.5294860440096881,B,764.7802910069004,Correct,sub_003_day_12_data.csv,1,300,97.0,Training at home,,,,,,,,,,,,,
3,12,2439,A,37.404282324977075,45.21481720068105,1.870214116248854,0.710232687755325,B,1834.8799999803305,Incorrect,sub_003_day_12_data.csv,0,300,97.0,Training at home,,,,,,,,,,,,,
3,12,2440,B,44.8954053551629,18.25312059115884,2.244770267758145,0.286719347771366,B,1148.6641250085086,Correct,sub_003_day_12_data.csv,1,300,97.0,Training at home,,,,,,,,,,,,,
3,12,2441,B,68.24905321465414,55.089641090486055,3.4124526607327073,0.865346058693847,B,854.1752079618163,Correct,sub_003_day_12_data.csv,1,300,97.0,Training at home,,,,,,,,,,,,,
3,12,2442,B,45.78462289798142,25.283413040681793,2.289231144899071,0.3971509233314114,B,588.2882500300184,Correct,sub_003_day_12_data.csv,1,300,97.0,Training at home,,,,,,,,,,,,,
3,12,2443,A,33.38158502990367,61.20769801712382,1.6690792514951835,0.9614482721686936,A,498.9293339895085,Correct,sub_003_day_12_data.csv,1,300,97.0,Training at home,,,,,,,,,,,,,
3,12,2444,B,87.26785993581072,60.227808090295554,4.3633929967905365,0.9460561971914422,B,660.2658339543268,Correct,sub_003_day_12_data.csv,1,300,97.0,Training at home,,,,,,,,,,,,,
3,12,2445,B,39.90774359683851,29.940767822024583,1.9953871798419256,0.4703084811625505,B,1098.955457971897,Correct,sub_003_day_12_data.csv,1,300,97.0,Training at home,,,,,,,,,,,,,
3,12,2446,A,23.097927584345953,43.785115818725885,1.1548963792172977,0.6877749909634374,A,583.8061249814928,Correct,sub_003_day_12_data.csv,1,300,97.0,Training at home,,,,,,,,,,,,,
3,12,2447,A,56.06879480405587,70.87451460960921,2.8034397402027933,1.1132942721214538,A,699.4934169924818,Correct,sub_003_day_12_data.csv,1,300,97.0,Training at home,,,,,,,,,,,,,
3,12,2448,A,47.79022903653355,62.457725122464,2.3895114518266776,0.9810836520233176,A,1678.7921250215732,Correct,sub_003_day_12_data.csv,1,300,97.0,Training at home,,,,,,,,,,,,,
3,12,2449,A,18.768944807905232,32.56181988969887,0.9384472403952616,0.5114798707649598,A,981.2212500255556,Correct,sub_003_day_12_data.csv,1,300,97.0,Training at home,,,,,,,,,,,,,
3,12,2450,B,69.71983979079666,57.64960570876887,3.4859919895398326,0.9055578888850826,B,826.0012500104494,Correct,sub_003_day_12_data.csv,1,300,98.0,Training at home,,,,,,,,,,,,,
3,12,2451,A,18.89692280782495,41.88484515795861,0.9448461403912476,0.657925609224944,A,422.1403750125319,Correct,sub_003_day_12_data.csv,1,300,98.0,Training at home,,,,,,,,,,,,,
3,12,2452,B,64.51929335993415,37.48006627229324,3.225964667996708,0.5887355042854752,B,620.164499967359,Correct,sub_003_day_12_data.csv,1,300,98.0,Training at home,,,,,,,,,,,,,
3,12,2453,B,64.7278534635033,32.24180038256577,3.2363926731751644,0.5064530161018861,B,548.9999169949442,Correct,sub_003_day_12_data.csv,1,300,98.0,Training at home,,,,,,,,,,,,,
3,12,2454,A,33.3028636196879,63.42287188462598,1.665143180984395,0.996244141911538,A,860.0860830047168,Correct,sub_003_day_12_data.csv,1,300,98.0,Training at home,,,,,,,,,,,,,
3,12,2455,B,69.32793619108313,44.717303910638215,3.4663968095541566,0.7024177672700157,B,765.5154169769958,Correct,sub_003_day_12_data.csv,1,300,98.0,Training at home,,,,,,,,,,,,,
3,12,2456,A,48.3588138006278,73.5935201850175,2.41794069003139,1.1560043118253156,A,685.7652080361731,Correct,sub_003_day_12_data.csv,1,300,98.0,Training at home,,,,,,,,,,,,,
3,12,2457,B,78.08121172499735,66.67236220050498,3.904060586249867,1.047287016432921,B,792.8679159958847,Correct,sub_003_day_12_data.csv,1,300,98.0,Training at home,,,,,,,,,,,,,
3,12,2458,A,42.07007247875774,74.15786244296896,2.103503623937887,1.1648689792837683,A,1022.868916974403,Correct,sub_003_day_12_data.csv,1,300,98.0,Training at home,,,,,,,,,,,,,
3,12,2459,A,13.704827580258332,39.23621616396959,0.6852413790129165,0.6163210422769397,A,822.0482500037178,Correct,sub_003_day_12_data.csv,1,300,98.0,Training at home,,,,,,,,,,,,,
3,12,2460,B,76.94030614017821,47.50302268026459,3.8470153070089106,0.7461757353781429,B,837.2608339996077,Correct,sub_003_day_12_data.csv,1,300,98.0,Training at home,,,,,,,,,,,,,
3,12,2461,B,77.07773033557996,64.19533273399094,3.853886516778998,1.008377928559291,B,1749.4787920149977,Correct,sub_003_day_12_data.csv,1,300,98.0,Training at home,,,,,,,,,,,,,
3,12,2462,B,44.13462684006555,23.34872160489017,2.2067313420032777,0.3667608613231812,B,1632.105041993782,Correct,sub_003_day_12_data.csv,1,300,98.0,Training at home,,,,,,,,,,,,,
3,12,2463,B,35.58843786662243,21.207153270532302,1.7794218933311214,0.3331211845912852,B,1351.8877500318922,Correct,sub_003_day_12_data.csv,1,300,98.0,Training at home,,,,,,,,,,,,,
3,12,2464,A,34.76421770529159,65.66152820701109,1.7382108852645797,1.0314088731931252,A,1225.6904580281116,Correct,sub_003_day_12_data.csv,1,300,98.0,Training at home,,,,,,,,,,,,,
3,12,2465,B,45.98653656657573,29.5198286291183,2.299326828328786,0.4636963837823386,B,987.9142499994488,Correct,sub_003_day_12_data.csv,1,300,98.0,Training at home,,,,,,,,,,,,,
3,12,2466,A,26.092809164080364,40.99075679695845,1.3046404582040183,0.6438813020920529,A,1128.8835000013933,Correct,sub_003_day_12_data.csv,1,300,98.0,Training at home,,,,,,,,,,,,,
3,12,2467,B,66.64255100570293,39.67073200308247,3.332127550285146,0.623146401117067,B,981.0079589951785,Correct,sub_003_day_12_data.csv,1,300,98.0,Training at home,,,,,,,,,,,,,
3,12,2468,B,66.15963675909043,45.878489195169635,3.307981837954521,0.7206576230667181,B,799.624582985416,Correct,sub_003_day_12_data.csv,1,300,98.0,Training at home,,,,,,,,,,,,,
3,12,2469,A,44.06313563628241,74.08553598616734,2.203156781814121,1.163732877957028,A,941.0151659976692,Correct,sub_003_day_12_data.csv,1,300,98.0,Training at home,,,,,,,,,,,,,
3,12,2470,A,28.256663020055413,57.758996523174595,1.4128331510027707,0.9072761957796184,A,675.4946670262143,Correct,sub_003_day_12_data.csv,1,300,98.0,Training at home,,,,,,,,,,,,,
3,12,2471,B,40.430443022106175,29.563910613554867,2.0215221511053088,0.4643888219746464,B,1542.154999973718,Correct,sub_003_day_12_data.csv,1,300,98.0,Training at home,,,,,,,,,,,,,
3,12,2472,A,19.929401608210867,38.619924774928734,0.9964700804105432,0.6066403597755327,A,884.7461250261404,Correct,sub_003_day_12_data.csv,1,300,98.0,Training at home,,,,,,,,,,,,,
3,12,2473,A,64.03242112961519,83.99461551995505,3.201621056480759,1.31938433529295,A,816.6656669927761,Correct,sub_003_day_12_data.csv,1,300,98.0,Training at home,,,,,,,,,,,,,
3,12,2474,B,52.34882721621583,22.34571855557662,2.6174413608107914,0.3510057262669231,B,654.2534160544164,Correct,sub_003_day_12_data.csv,1,300,98.0,Training at home,,,,,,,,,,,,,
3,12,2475,A,18.009323679298323,41.15353971994936,0.9004661839649161,0.6464382902670435,A,594.8734999983571,Correct,sub_003_day_12_data.csv,1,300,99.0,Training at home,,,,,,,,,,,,,
3,12,2476,A,61.97976592696482,74.71819792676202,3.098988296348241,1.1736707084809184,A,1127.1184590295888,Correct,sub_003_day_12_data.csv,1,300,99.0,Training at home,,,,,,,,,,,,,
3,12,2477,A,42.657447696253,56.74655838691814,2.13287238481265,0.8913728547242314,A,962.5772909494116,Correct,sub_003_day_12_data.csv,1,300,99.0,Training at home,,,,,,,,,,,,,
3,12,2478,B,64.11757998922783,45.88548624292579,3.2058789994613917,0.7207675324358558,B,1007.7348339837044,Correct,sub_003_day_12_data.csv,1,300,99.0,Training at home,,,,,,,,,,,,,
3,12,2479,B,47.97018560084826,37.9925490544136,2.398509280042413,0.596785565002478,B,973.2532919733784,Correct,sub_003_day_12_data.csv,1,300,99.0,Training at home,,,,,,,,,,,,,
3,12,2480,A,31.146304643549325,40.252283735655325,1.5573152321774664,0.6322813943707334,A,1038.9712909818627,Correct,sub_003_day_12_data.csv,1,300,99.0,Training at home,,,,,,,,,,,,,
3,12,2481,A,12.40299632986476,35.033111851012606,0.620149816493238,0.5502988341176536,A,836.9063749560155,Correct,sub_003_day_12_data.csv,1,300,99.0,Training at home,,,,,,,,,,,,,
3,12,2482,B,40.90640332777988,29.33277824676889,2.045320166388994,0.4607582032471381,B,1385.4588749818504,Correct,sub_003_day_12_data.csv,1,300,99.0,Training at home,,,,,,,,,,,,,
3,12,2483,B,53.73411163772252,36.88660659015892,2.6867055818861263,0.5794134613975005,B,958.5515829967336,Correct,sub_003_day_12_data.csv,1,300,99.0,Training at home,,,,,,,,,,,,,
3,12,2484,B,69.22785466188743,45.57872100217046,3.4613927330943715,0.7159488753021878,B,976.9549999618904,Correct,sub_003_day_12_data.csv,1,300,99.0,Training at home,,,,,,,,,,,,,
3,12,2485,A,38.50130359012175,48.80947684749656,1.9250651795060876,0.7666974694482817,B,779.5356250135228,Incorrect,sub_003_day_12_data.csv,0,300,99.0,Training at home,,,,,,,,,,,,,
3,12,2486,A,20.87759222080472,51.47419459416357,1.0438796110402362,0.8085547579323785,A,608.7637910386547,Correct,sub_003_day_12_data.csv,1,300,99.0,Training at home,,,,,,,,,,,,,
3,12,2487,B,49.91738443359171,27.583898848487948,2.4958692216795852,0.4332868698988685,B,445.2574159950018,Correct,sub_003_day_12_data.csv,1,300,99.0,Training at home,,,,,,,,,,,,,
3,12,2488,A,57.544899267364315,70.75060461898539,2.8772449633682156,1.111347898540203,A,805.1304999971762,Correct,sub_003_day_12_data.csv,1,300,99.0,Training at home,,,,,,,,,,,,,
3,12,2489,B,59.246587608766006,37.27954847437342,2.9623293804383,0.5855857780811805,B,685.4413750115782,Correct,sub_003_day_12_data.csv,1,300,99.0,Training at home,,,,,,,,,,,,,
3,12,2490,A,61.22532970037739,82.16647454375466,3.0612664850188698,1.290667963990162,A,536.1223329673521,Correct,sub_003_day_12_data.csv,1,300,99.0,Training at home,,,,,,,,,,,,,
3,12,2491,A,11.688288923351234,36.01174191641102,0.5844144461675618,0.5656711192378424,A,545.4308339976706,Correct,sub_003_day_12_data.csv,1,300,99.0,Training at home,,,,,,,,,,,,,
3,12,2492,B,71.95684694540381,50.484500481126545,3.5978423472701904,0.7930086791582875,B,1217.3392080003396,Correct,sub_003_day_12_data.csv,1,300,99.0,Training at home,,,,,,,,,,,,,
3,12,2493,B,83.99072296996232,69.17785056677752,4.199536148498116,1.0866431356586037,B,486.5062909666449,Correct,sub_003_day_12_data.csv,1,300,99.0,Training at home,,,,,,,,,,,,,
3,12,2494,B,72.26573267339815,58.722769446112,3.613286633669907,0.9224151054517632,B,410.72124999482185,Correct,sub_003_day_12_data.csv,1,300,99.0,Training at home,,,,,,,,,,,,,
3,12,2495,B,44.59205347923543,25.448820962465636,2.2296026739617716,0.3997491448910198,B,575.9964170283638,Correct,sub_003_day_12_data.csv,1,300,99.0,Training at home,,,,,,,,,,,,,
3,12,2496,A,42.25199848643283,58.23923220806827,2.1125999243216413,0.9148197202778866,A,1234.5012499717996,Correct,sub_003_day_12_data.csv,1,300,99.0,Training at home,,,,,,,,,,,,,
3,12,2497,A,58.00362476379314,69.98024853914278,2.9001812381896572,1.099247173534794,A,956.5569999977016,Correct,sub_003_day_12_data.csv,1,300,99.0,Training at home,,,,,,,,,,,,,
3,12,2498,A,25.688905781626104,56.59844034110621,1.2844452890813052,0.8890462219012972,A,550.6017499719746,Correct,sub_003_day_12_data.csv,1,300,99.0,Training at home,,,,,,,,,,,,,
3,12,2499,B,69.73712415452694,41.797497935985376,3.486856207726347,0.656553562270631,B,437.17237503733486,Correct,sub_003_day_12_data.csv,1,300,99.0,Training at home,,,,,,,,,,,,,
3,12,2500,B,76.04375807335899,57.52413143465747,3.802187903667949,0.903586943596268,B,432.2830000310205,Correct,sub_003_day_12_data.csv,1,300,100.0,Training at home,,,,,,,,,,,,,
3,12,2501,B,62.8537389349114,52.649371466844,3.14268694674557,0.8270143930817858,B,440.3347499901429,Correct,sub_003_day_12_data.csv,1,300,100.0,Training at home,,,,,,,,,,,,,
3,12,2502,B,60.785698479739224,52.558359169061816,3.039284923986961,0.8255847752512916,B,615.3195420047268,Correct,sub_003_day_12_data.csv,1,300,100.0,Training at home,,,,,,,,,,,,,
3,12,2503,B,39.257526561878336,28.912719760363917,1.9628763280939168,0.4541599399722986,B,895.8321249810979,Correct,sub_003_day_12_data.csv,1,300,100.0,Training at home,,,,,,,,,,,,,
3,12,2504,A,23.720937343715605,50.316948458179425,1.1860468671857802,0.7903767781363638,A,558.67404199671,Correct,sub_003_day_12_data.csv,1,300,100.0,Training at home,,,,,,,,,,,,,
3,12,2505,A,65.53152538565243,78.53904141587947,3.276576269282622,1.2336883776605572,A,677.4084589560516,Correct,sub_003_day_12_data.csv,1,300,100.0,Training at home,,,,,,,,,,,,,
3,12,2506,A,23.607559828577298,48.017078257039614,1.1803779914288648,0.7542505014958091,A,929.4309170218183,Correct,sub_003_day_12_data.csv,1,300,100.0,Training at home,,,,,,,,,,,,,
3,12,2507,B,36.27641872708905,22.772119736659036,1.8138209363544524,0.3577036203567758,B,852.296540979296,Correct,sub_003_day_12_data.csv,1,300,100.0,Training at home,,,,,,,,,,,,,
3,12,2508,A,35.15681848759726,44.91005792743329,1.7578409243798632,0.7054455402855824,A,1537.2279590228572,Correct,sub_003_day_12_data.csv,1,300,100.0,Training at home,,,,,,,,,,,,,
3,12,2509,B,37.01793129610196,12.020955800269888,1.850896564805098,0.1888247321562775,B,934.2472919961438,Correct,sub_003_day_12_data.csv,1,300,100.0,Training at home,,,,,,,,,,,,,
3,12,2510,B,79.02021661526496,47.98439995353399,3.951010830763248,0.753737191904684,B,646.2863340275362,Correct,sub_003_day_12_data.csv,1,300,100.0,Training at home,,,,,,,,,,,,,
3,12,2511,B,73.18830528200661,55.71206591298637,3.65941526410033,0.8751230849427415,B,477.9992499970831,Correct,sub_003_day_12_data.csv,1,300,100.0,Training at home,,,,,,,,,,,,,
3,12,2512,B,77.49234527035037,57.48707005022201,3.8746172635175182,0.9030047847308964,B,413.8090000487864,Correct,sub_003_day_12_data.csv,1,300,100.0,Training at home,,,,,,,,,,,,,
3,12,2513,A,23.98540218749433,38.2278115385982,1.1992701093747165,0.6004810594623762,A,618.6456250143237,Correct,sub_003_day_12_data.csv,1,300,100.0,Training at home,,,,,,,,,,,,,
3,12,2514,A,15.06247542838656,33.54140846335973,0.753123771419328,0.5268672120977272,A,543.8260830123909,Correct,sub_003_day_12_data.csv,1,300,100.0,Training at home,,,,,,,,,,,,,
3,12,2515,B,58.1630798828974,48.68805418862697,2.90815399414487,0.7647901667828612,B,603.0968749546446,Correct,sub_003_day_12_data.csv,1,300,100.0,Training at home,,,,,,,,,,,,,
3,12,2516,A,20.314854633154447,40.201667411532014,1.0157427316577223,0.6314863150106459,A,551.2953749857843,Correct,sub_003_day_12_data.csv,1,300,100.0,Training at home,,,,,,,,,,,,,
3,12,2517,B,55.07464240132976,24.407496840071342,2.753732120066488,0.3833920638264212,B,401.09016600763425,Correct,sub_003_day_12_data.csv,1,300,100.0,Training at home,,,,,,,,,,,,,
3,12,2518,A,43.430720229524795,54.0392251802041,2.17153601147624,0.8488461641590688,A,1213.450749986805,Correct,sub_003_day_12_data.csv,1,300,100.0,Training at home,,,,,,,,,,,,,
3,12,2519,A,45.13595808450052,74.37108022077476,2.256797904225026,1.1682181963056155,A,562.5141250202432,Correct,sub_003_day_12_data.csv,1,300,100.0,Training at home,,,,,,,,,,,,,
3,12,2520,A,36.64770582737127,46.35911392847576,1.8323852913685637,0.7282072587231585,B,704.2406250257045,Incorrect,sub_003_day_12_data.csv,0,300,100.0,Training at home,,,,,,,,,,,,,
3,12,2521,A,61.731083460608,77.34723921069866,3.0865541730304,1.2149675923989165,A,742.7309170016088,Correct,sub_003_day_12_data.csv,1,300,100.0,Training at home,,,,,,,,,,,,,
3,12,2522,B,89.65019074186311,67.22168922304225,4.482509537093156,1.0559158251250285,B,528.039249998983,Correct,sub_003_day_12_data.csv,1,300,100.0,Training at home,,,,,,,,,,,,,
3,12,2523,A,27.771993630078388,39.378990709667576,1.3885996815039194,0.6185637395963619,A,624.5971670141444,Correct,sub_003_day_12_data.csv,1,300,100.0,Training at home,,,,,,,,,,,,,
3,12,2524,B,78.0937610604423,48.25583957822117,3.9046880530221153,0.7580009555587363,B,465.4280000249855,Correct,sub_003_day_12_data.csv,1,300,100.0,Training at home,,,,,,,,,,,,,
3,12,2525,A,43.51079772112664,54.48564142526046,2.175539886056332,0.8558584541386298,B,4785.237374948338,Incorrect,sub_003_day_12_data.csv,0,300,101.0,Training at home,,,,,,,,,,,,,
3,12,2526,A,47.16868099905152,76.24644117683417,2.358434049952576,1.1976762973175423,A,555.438083014451,Correct,sub_003_day_12_data.csv,1,300,101.0,Training at home,,,,,,,,,,,,,
3,12,2527,B,72.7594999642556,58.42117237128806,3.63797499821278,0.9176776296787078,B,485.7366250362247,Correct,sub_003_day_12_data.csv,1,300,101.0,Training at home,,,,,,,,,,,,,
3,12,2528,A,32.07868033486793,52.38743394676485,1.6039340167433966,0.8228998881378847,A,507.0042080478743,Correct,sub_003_day_12_data.csv,1,300,101.0,Training at home,,,,,,,,,,,,,
3,12,2529,A,21.94747774619864,53.91619373000068,1.097373887309932,0.8469135906584709,A,517.4447909812443,Correct,sub_003_day_12_data.csv,1,300,101.0,Training at home,,,,,,,,,,,,,
3,12,2530,A,40.30900082059508,53.17015475000442,2.0154500410297542,0.8351948377642315,A,793.5966670047492,Correct,sub_003_day_12_data.csv,1,300,101.0,Training at home,,,,,,,,,,,,,
3,12,2531,B,36.24579605279519,25.245813467954335,1.8122898026397596,0.3965603106241179,B,556.8931250018068,Correct,sub_003_day_12_data.csv,1,300,101.0,Training at home,,,,,,,,,,,,,
3,12,2532,B,54.40230175722997,35.889141387900686,2.7201150878614984,0.5637453146393709,B,532.6675830292515,Correct,sub_003_day_12_data.csv,1,300,101.0,Training at home,,,,,,,,,,,,,
3,12,2533,A,19.600897571869368,40.74892703023069,0.9800448785934684,0.6400826489991964,A,497.6268339669332,Correct,sub_003_day_12_data.csv,1,300,101.0,Training at home,,,,,,,,,,,,,
3,12,2534,A,31.389009939884755,43.864990710246445,1.5694504969942378,0.6890296628254737,A,943.4682499850168,Correct,sub_003_day_12_data.csv,1,300,101.0,Training at home,,,,,,,,,,,,,
3,12,2535,A,34.04543836706479,55.16406367270229,1.702271918353239,0.8665150858816054,A,594.3907080218196,Correct,sub_003_day_12_data.csv,1,300,101.0,Training at home,,,,,,,,,,,,,
3,12,2536,A,49.75865530731899,57.38864507663879,2.487932765365949,0.9014587288612024,A,2062.986249977257,Correct,sub_003_day_12_data.csv,1,300,101.0,Training at home,,,,,,,,,,,,,
3,12,2537,B,83.39466409584526,53.201728433445474,4.169733204792263,0.8356907960239576,B,495.80174998845905,Correct,sub_003_day_12_data.csv,1,300,101.0,Training at home,,,,,,,,,,,,,
3,12,2538,B,74.2613476832319,46.62650737534344,3.713067384161595,0.7324074651646464,B,416.4286250015721,Correct,sub_003_day_12_data.csv,1,300,101.0,Training at home,,,,,,,,,,,,,
3,12,2539,B,43.31968339069058,22.00231919747695,2.165984169534529,0.3456116217636563,B,597.090958035551,Correct,sub_003_day_12_data.csv,1,300,101.0,Training at home,,,,,,,,,,,,,
3,12,2540,A,29.849359137182667,51.17411586340017,1.4924679568591332,0.8038411322520543,A,562.0639590197243,Correct,sub_003_day_12_data.csv,1,300,101.0,Training at home,,,,,,,,,,,,,
3,12,2541,A,27.23312009467243,44.31410191471467,1.3616560047336213,0.6960842851284851,A,877.2954170126468,Correct,sub_003_day_12_data.csv,1,300,101.0,Training at home,,,,,,,,,,,,,
3,12,2542,A,33.08334040545812,61.192179529073286,1.6541670202729055,0.9612045083284216,A,511.10937498742715,Correct,sub_003_day_12_data.csv,1,300,101.0,Training at home,,,,,,,,,,,,,
3,12,2543,B,31.78460168125561,18.850050312249788,1.5892300840627802,0.2960958979038096,B,748.9547089789994,Correct,sub_003_day_12_data.csv,1,300,101.0,Training at home,,,,,,,,,,,,,
3,12,2544,A,14.93148511412047,37.35963776582689,0.7465742557060235,0.5868438177294877,A,548.5340419691056,Correct,sub_003_day_12_data.csv,1,300,101.0,Training at home,,,,,,,,,,,,,
3,12,2545,B,51.90283230897026,25.314977845234615,2.595141615448513,0.3976467421218871,B,605.2475410397165,Correct,sub_003_day_12_data.csv,1,300,101.0,Training at home,,,,,,,,,,,,,
3,12,2546,A,15.018672325470618,32.95911854677722,0.750933616273531,0.5177206234767521,A,525.0092910137028,Correct,sub_003_day_12_data.csv,1,300,101.0,Training at home,,,,,,,,,,,,,
3,12,2547,B,60.50655871282634,31.49531901716309,3.0253279356413167,0.4947273142339324,B,487.5230419565923,Correct,sub_003_day_12_data.csv,1,300,101.0,Training at home,,,,,,,,,,,,,
3,12,2548,B,33.67489478699406,16.857852621750997,1.683744739349703,0.2648025297589618,B,2903.1569579965435,Correct,sub_003_day_12_data.csv,1,300,101.0,Training at home,,,,,,,,,,,,,
3,12,2549,B,61.542435996737865,28.851415817270983,3.0771217998368936,0.4531969798860143,B,417.6924159983173,Correct,sub_003_day_12_data.csv,1,300,101.0,Training at home,,,,,,,,,,,,,
3,12,2550,B,56.04960935136361,25.02386058312585,2.8024804675681803,0.3930738828620168,B,459.2432919889689,Correct,sub_003_day_12_data.csv,1,300,102.0,Training at home,,,,,,,,,,,,,
3,12,2551,B,38.57734674237178,27.322643795526854,1.9288673371185892,0.4291830851233895,B,421.65033402852714,Correct,sub_003_day_12_data.csv,1,300,102.0,Training at home,,,,,,,,,,,,,
3,12,2552,A,22.272073059223786,38.761956594441656,1.1136036529611892,0.6088713903793218,A,739.0104579972103,Correct,sub_003_day_12_data.csv,1,300,102.0,Training at home,,,,,,,,,,,,,
3,12,2553,B,57.95577640921878,27.851414619597097,2.897788820460939,0.4374889978050479,B,477.2253750124946,Correct,sub_003_day_12_data.csv,1,300,102.0,Training at home,,,,,,,,,,,,,
3,12,2554,B,57.53251465575482,42.364419122260266,2.8766257327877405,0.665458739440459,B,439.231833035592,Correct,sub_003_day_12_data.csv,1,300,102.0,Training at home,,,,,,,,,,,,,
3,12,2555,B,48.4568018045015,26.585731568422183,2.4228400902250753,0.4176076949283269,B,565.1062090182677,Correct,sub_003_day_12_data.csv,1,300,102.0,Training at home,,,,,,,,,,,,,
3,12,2556,B,69.72672598288062,48.71479735209094,3.486336299144031,0.7652102474122221,B,435.8751670224592,Correct,sub_003_day_12_data.csv,1,300,102.0,Training at home,,,,,,,,,,,,,
3,12,2557,A,36.1114397306627,64.5787769646943,1.8055719865331352,1.0144010564504868,A,586.4610000280663,Correct,sub_003_day_12_data.csv,1,300,102.0,Training at home,,,,,,,,,,,,,
3,12,2558,B,69.29270710790372,36.944022523640584,3.464635355395186,0.5803153487716255,B,449.7434579534456,Correct,sub_003_day_12_data.csv,1,300,102.0,Training at home,,,,,,,,,,,,,
3,12,2559,B,34.401850895259074,21.183411321650283,1.7200925447629538,0.3327482469303369,B,680.4788330337033,Correct,sub_003_day_12_data.csv,1,300,102.0,Training at home,,,,,,,,,,,,,
3,12,2560,B,31.65450913840042,14.581044236886632,1.5827254569200209,0.2290385072813542,B,651.9191249972209,Correct,sub_003_day_12_data.csv,1,300,102.0,Training at home,,,,,,,,,,,,,
3,12,2561,A,22.538466849463333,38.71597362433745,1.1269233424731666,0.6081490915739736,A,584.0495000011288,Correct,sub_003_day_12_data.csv,1,300,102.0,Training at home,,,,,,,,,,,,,
3,12,2562,A,40.78058266718384,57.90473506790748,2.039029133359192,0.9095654514870072,A,1444.6989999851212,Correct,sub_003_day_12_data.csv,1,300,102.0,Training at home,,,,,,,,,,,,,
3,12,2563,B,56.9168771942726,38.10927108159042,2.8458438597136304,0.5986190303179321,B,1052.014707995113,Correct,sub_003_day_12_data.csv,1,300,102.0,Training at home,,,,,,,,,,,,,
3,12,2564,B,79.68050274847897,48.71694039710603,3.984025137423948,0.7652439102846006,B,648.4079590300098,Correct,sub_003_day_12_data.csv,1,300,102.0,Training at home,,,,,,,,,,,,,
3,12,2565,A,19.890903086983904,42.47459360424345,0.9945451543491952,0.6671893561565162,A,666.0344579722732,Correct,sub_003_day_12_data.csv,1,300,102.0,Training at home,,,,,,,,,,,,,
3,12,2566,B,85.65539200901071,61.83037350842837,4.282769600450536,0.9712292359139576,B,466.9850410427898,Correct,sub_003_day_12_data.csv,1,300,102.0,Training at home,,,,,,,,,,,,,
3,12,2567,A,38.94804579848448,49.16437786115498,1.947402289924224,0.7722722415345858,A,1245.045207964722,Correct,sub_003_day_12_data.csv,1,300,102.0,Training at home,,,,,,,,,,,,,
3,12,2568,B,49.2417647810479,26.54835652665202,2.462088239052395,0.417020609145063,B,469.3908750195987,Correct,sub_003_day_12_data.csv,1,300,102.0,Training at home,,,,,,,,,,,,,
3,12,2569,B,51.378602472407465,38.16427939087955,2.5689301236203734,0.5994830988196777,B,483.6444159736857,Correct,sub_003_day_12_data.csv,1,300,102.0,Training at home,,,,,,,,,,,,,
3,12,2570,B,65.81607744084269,35.738593285125624,3.290803872042135,0.5613805105709209,B,533.4849159698933,Correct,sub_003_day_12_data.csv,1,300,102.0,Training at home,,,,,,,,,,,,,
3,12,2571,A,41.804082649885714,49.78797494969657,2.0902041324942857,0.7820676816953969,A,1834.091458003968,Correct,sub_003_day_12_data.csv,1,300,102.0,Training at home,,,,,,,,,,,,,
3,12,2572,A,45.21614953525992,56.81327488965923,2.260807476762996,0.8924208350986546,A,995.7447500200942,Correct,sub_003_day_12_data.csv,1,300,102.0,Training at home,,,,,,,,,,,,,
3,12,2573,B,81.74694043676045,67.56599045696971,4.087347021838022,1.0613240962606705,B,547.5532910204493,Correct,sub_003_day_12_data.csv,1,300,102.0,Training at home,,,,,,,,,,,,,
3,12,2574,B,31.45073182685237,15.408174954165675,1.5725365913426186,0.2420310462061656,A,1253.1246659928,Incorrect,sub_003_day_12_data.csv,0,300,102.0,Training at home,,,,,,,,,,,,,
3,12,2575,B,55.95326312666344,30.87818064041414,2.797663156333172,0.4850333272807182,B,468.4730840381235,Correct,sub_003_day_12_data.csv,1,300,103.0,Training at home,,,,,,,,,,,,,
3,12,2576,A,52.79781375655027,66.290182055998,2.6398906878275135,1.0412837447612662,A,628.0397090013139,Correct,sub_003_day_12_data.csv,1,300,103.0,Training at home,,,,,,,,,,,,,
3,12,2577,A,63.8046188191011,77.9131537478622,3.190230940955055,1.2238569571614797,A,639.8763330071233,Correct,sub_003_day_12_data.csv,1,300,103.0,Training at home,,,,,,,,,,,,,
3,12,2578,A,48.41054278976661,58.234164089431566,2.4205271394883305,0.9147401104565036,A,960.2507920353672,Correct,sub_003_day_12_data.csv,1,300,103.0,Training at home,,,,,,,,,,,,,
3,12,2579,A,20.259503931711063,38.47800097972964,1.0129751965855534,0.6044110260136976,A,587.476666958537,Correct,sub_003_day_12_data.csv,1,300,103.0,Training at home,,,,,,,,,,,,,
3,12,2580,B,52.123202469277594,21.39641443881979,2.6061601234638796,0.3360940920707941,B,579.888500040397,Correct,sub_003_day_12_data.csv,1,300,103.0,Training at home,,,,,,,,,,,,,
3,12,2581,A,16.76618536146237,40.80698776090766,0.8383092680731185,0.6409946648239805,A,576.0083330096677,Correct,sub_003_day_12_data.csv,1,300,103.0,Training at home,,,,,,,,,,,,,
3,12,2582,A,29.815786553975727,53.19021301070673,1.4907893276987862,0.8355099121865626,A,753.1216669594869,Correct,sub_003_day_12_data.csv,1,300,103.0,Training at home,,,,,,,,,,,,,
3,12,2583,A,17.38472426147363,32.802342533678114,0.8692362130736814,0.5152579916216958,A,584.4362089992501,Correct,sub_003_day_12_data.csv,1,300,103.0,Training at home,,,,,,,,,,,,,
3,12,2584,B,69.82987847208697,50.522584581230035,3.4914939236043487,0.7936069028038062,B,528.2465839991346,Correct,sub_003_day_12_data.csv,1,300,103.0,Training at home,,,,,,,,,,,,,
3,12,2585,A,51.603881780152186,69.81436701375357,2.5801940890076094,1.096641512627149,A,730.1445840275846,Correct,sub_003_day_12_data.csv,1,300,103.0,Training at home,,,,,,,,,,,,,
3,12,2586,A,20.583663206703,33.62732890850842,1.02918316033515,0.5282168472940886,A,564.3639999907464,Correct,sub_003_day_12_data.csv,1,300,103.0,Training at home,,,,,,,,,,,,,
3,12,2587,A,33.64786505455732,49.38624689778321,1.682393252727866,0.7757573522122373,A,620.9309580153786,Correct,sub_003_day_12_data.csv,1,300,103.0,Training at home,,,,,,,,,,,,,
3,12,2588,B,87.45474282122277,61.567957546665205,4.372737141061139,0.9671072156256584,B,983.1677910406142,Correct,sub_003_day_12_data.csv,1,300,103.0,Training at home,,,,,,,,,,,,,
3,12,2589,A,38.775028435196894,71.79047792090216,1.9387514217598447,1.1276821901700325,A,665.012207988184,Correct,sub_003_day_12_data.csv,1,300,103.0,Training at home,,,,,,,,,,,,,
3,12,2590,B,57.001629008127026,34.16475964308271,2.850081450406351,0.5366587895318484,B,901.1871250113472,Correct,sub_003_day_12_data.csv,1,300,103.0,Training at home,,,,,,,,,,,,,
3,12,2591,B,69.69485514684672,47.514037912851386,3.484742757342336,0.7463487622470041,B,678.2828330178745,Correct,sub_003_day_12_data.csv,1,300,103.0,Training at home,,,,,,,,,,,,,
3,12,2592,A,28.516652745380064,48.93790488059144,1.4258326372690031,0.7687148122747107,A,588.8617499731481,Correct,sub_003_day_12_data.csv,1,300,103.0,Training at home,,,,,,,,,,,,,
3,12,2593,B,50.28072381692793,22.06490903417859,2.514036190846397,0.3465947806195126,B,522.5579160032794,Correct,sub_003_day_12_data.csv,1,300,103.0,Training at home,,,,,,,,,,,,,
3,12,2594,B,31.52233047982083,17.546217969858176,1.5761165239910415,0.2756153473619583,B,917.662207968533,Correct,sub_003_day_12_data.csv,1,300,103.0,Training at home,,,,,,,,,,,,,
3,12,2595,B,62.58121918547953,29.922232249917883,3.1290609592739766,0.470017325076748,B,508.7442499934696,Correct,sub_003_day_12_data.csv,1,300,103.0,Training at home,,,,,,,,,,,,,
3,12,2596,B,44.48120284962012,34.12930671735913,2.224060142481006,0.536101896276841,B,818.4397920267656,Correct,sub_003_day_12_data.csv,1,300,103.0,Training at home,,,,,,,,,,,,,
3,12,2597,B,73.38385802441898,58.66832649380263,3.669192901220949,0.9215599175566888,B,484.4322919961997,Correct,sub_003_day_12_data.csv,1,300,103.0,Training at home,,,,,,,,,,,,,
3,12,2598,B,62.953713169053266,48.50716900204968,3.147685658452663,0.7619488289163889,B,448.78408301156014,Correct,sub_003_day_12_data.csv,1,300,103.0,Training at home,,,,,,,,,,,,,
3,12,2599,A,62.11229745072062,71.07877171611973,3.105614872536031,1.1165027352477386,A,647.6878339890391,Correct,sub_003_day_12_data.csv,1,300,103.0,Training at home,,,,,,,,,,,,,
3,12,2600,B,82.16128113830962,51.87304617062386,4.108064056915481,0.8148199038447804,B,495.700916973874,Correct,sub_003_day_12_data.csv,1,300,104.0,Training at home,,,,,,,,,,,,,
3,12,2601,A,22.257218255299083,46.995856026813485,1.112860912764954,0.7382091802150041,A,574.4589999667369,Correct,sub_003_day_12_data.csv,1,300,104.0,Training at home,,,,,,,,,,,,,
3,12,2602,B,34.9371293497737,10.368412096353502,1.7468564674886848,0.1628666363564785,B,987.3049160232767,Correct,sub_003_day_12_data.csv,1,300,104.0,Training at home,,,,,,,,,,,,,
3,12,2603,B,54.204973732229114,35.43472487059639,2.7102486866114557,0.5566073566772057,B,522.8365840157494,Correct,sub_003_day_12_data.csv,1,300,104.0,Training at home,,,,,,,,,,,,,
3,12,2604,B,52.76375050518362,30.220831578077068,2.6381875252591813,0.4747077123553067,B,418.96904195891693,Correct,sub_003_day_12_data.csv,1,300,104.0,Training at home,,,,,,,,,,,,,
3,12,2605,B,52.16552368259922,21.3339002956974,2.608276184129961,0.3351121222069003,B,416.595040995162,Correct,sub_003_day_12_data.csv,1,300,104.0,Training at home,,,,,,,,,,,,,
3,12,2606,A,21.448730571732565,51.42763111185002,1.0724365285866282,0.8078233404625695,A,510.4783329879865,Correct,sub_003_day_12_data.csv,1,300,104.0,Training at home,,,,,,,,,,,,,
3,12,2607,A,38.10419592809932,68.84355370649818,1.905209796404966,1.0813920128567454,A,596.6566249844618,Correct,sub_003_day_12_data.csv,1,300,104.0,Training at home,,,,,,,,,,,,,
3,12,2608,A,19.370814592734344,43.189860151130745,0.9685407296367172,0.6784247368018145,A,637.6789169735275,Correct,sub_003_day_12_data.csv,1,300,104.0,Training at home,,,,,,,,,,,,,
3,12,2609,B,89.52666890235518,64.78217021399973,4.476333445117759,1.0175959501395255,B,464.0569170005619,Correct,sub_003_day_12_data.csv,1,300,104.0,Training at home,,,,,,,,,,,,,
3,12,2610,B,84.78255459902603,64.9850150056422,4.239127729951301,1.02078222867574,B,546.9794999808073,Correct,sub_003_day_12_data.csv,1,300,104.0,Training at home,,,,,,,,,,,,,
3,12,2611,B,53.93198256876029,39.66088672177776,2.696599128438015,0.62299175179997,B,683.1808330025524,Correct,sub_003_day_12_data.csv,1,300,104.0,Training at home,,,,,,,,,,,,,
3,12,2612,A,52.27125029568553,63.87687102893,2.613562514784277,1.0033755437939458,A,786.6630839998834,Correct,sub_003_day_12_data.csv,1,300,104.0,Training at home,,,,,,,,,,,,,
3,12,2613,A,59.70785020659319,81.78727974788413,2.98539251032966,1.28471158606523,A,584.0765000320971,Correct,sub_003_day_12_data.csv,1,300,104.0,Training at home,,,,,,,,,,,,,
3,12,2614,B,70.97747041800812,39.96538873298246,3.5488735209004063,0.6277748582069899,B,441.05924997711554,Correct,sub_003_day_12_data.csv,1,300,104.0,Training at home,,,,,,,,,,,,,
3,12,2615,B,74.24515429601408,53.86870677551717,3.712257714800704,0.8461676673217372,B,458.21437501581386,Correct,sub_003_day_12_data.csv,1,300,104.0,Training at home,,,,,,,,,,,,,
3,12,2616,A,26.218577037181593,52.15799033651311,1.3109288518590796,0.8192957963359851,A,673.6147920018993,Correct,sub_003_day_12_data.csv,1,300,104.0,Training at home,,,,,,,,,,,,,
3,12,2617,B,74.6271766696355,62.90524617735191,3.7313588334817753,0.9881132963151308,B,594.016749993898,Correct,sub_003_day_12_data.csv,1,300,104.0,Training at home,,,,,,,,,,,,,
3,12,2618,A,48.1197795630672,77.64607988895905,2.40598897815336,1.2196617707959996,A,575.5797500023618,Correct,sub_003_day_12_data.csv,1,300,104.0,Training at home,,,,,,,,,,,,,
3,12,2619,A,45.717608478535105,53.63685554823601,2.285880423926755,0.8425257567599758,B,751.4378339983523,Incorrect,sub_003_day_12_data.csv,0,300,104.0,Training at home,,,,,,,,,,,,,
3,12,2620,A,49.10224943825554,59.81050777056778,2.455112471912777,0.9395012590974549,A,664.6057909820229,Correct,sub_003_day_12_data.csv,1,300,104.0,Training at home,,,,,,,,,,,,,
3,12,2621,B,39.749551415631935,13.445993355285204,1.9874775707815968,0.2112091697259058,B,648.3126669772901,Correct,sub_003_day_12_data.csv,1,300,104.0,Training at home,,,,,,,,,,,,,
3,12,2622,A,66.71401392300268,82.13334765212613,3.3357006961501336,1.29014760799328,A,520.3404580242932,Correct,sub_003_day_12_data.csv,1,300,104.0,Training at home,,,,,,,,,,,,,
3,12,2623,A,21.96877018954099,41.1857303717551,1.0984385094770497,0.6469439398431792,B,429.3151249876246,Incorrect,sub_003_day_12_data.csv,0,300,104.0,Training at home,,,,,,,,,,,,,
3,12,2624,B,45.06112342766093,31.88264670263544,2.2530561713830464,0.5008114432899917,B,807.7025000238791,Correct,sub_003_day_12_data.csv,1,300,104.0,Training at home,,,,,,,,,,,,,
3,12,2625,A,28.39025190293405,39.456116101594816,1.4195125951467025,0.6197752224197811,A,800.0531660509296,Correct,sub_003_day_12_data.csv,1,300,105.0,Training at home,,,,,,,,,,,,,
3,12,2626,B,40.40069388972767,28.71011356926481,2.0200346944863834,0.4509774093646547,B,662.2367500094697,Correct,sub_003_day_12_data.csv,1,300,105.0,Training at home,,,,,,,,,,,,,
3,12,2627,A,54.65847243657867,79.65776275739154,2.7329236218289332,1.2512612114000994,A,559.0671660029329,Correct,sub_003_day_12_data.csv,1,300,105.0,Training at home,,,,,,,,,,,,,
3,12,2628,A,23.991070122076252,50.65580587073987,1.1995535061038125,0.7956995379259354,A,506.9582919823006,Correct,sub_003_day_12_data.csv,1,300,105.0,Training at home,,,,,,,,,,,,,
3,12,2629,A,41.38233240782184,64.02163591747833,2.069116620391092,1.005649505345752,A,732.6145000406541,Correct,sub_003_day_12_data.csv,1,300,105.0,Training at home,,,,,,,,,,,,,
3,12,2630,B,67.40088457862578,41.52047464396128,3.370044228931289,0.6522020905751502,B,613.0740830558352,Correct,sub_003_day_12_data.csv,1,300,105.0,Training at home,,,,,,,,,,,,,
3,12,2631,B,31.577516372030317,10.35210246836671,1.578875818601516,0.1626104453191481,B,833.1860830076039,Correct,sub_003_day_12_data.csv,1,300,105.0,Training at home,,,,,,,,,,,,,
3,12,2632,B,37.93498826490767,20.53911244113,1.8967494132453837,0.3226276237815436,B,803.752625011839,Correct,sub_003_day_12_data.csv,1,300,105.0,Training at home,,,,,,,,,,,,,
3,12,2633,B,40.2451870200873,14.977784523319844,2.012259351004366,0.2352704891275626,B,580.8472919743508,Correct,sub_003_day_12_data.csv,1,300,105.0,Training at home,,,,,,,,,,,,,
3,12,2634,B,80.03494159141309,59.135735579760905,4.001747079570654,0.928901962310027,B,614.8563330061734,Correct,sub_003_day_12_data.csv,1,300,105.0,Training at home,,,,,,,,,,,,,
3,12,2635,B,45.29454586938067,23.442330818041786,2.2647272934690337,0.3682312714049083,B,519.4044170202687,Correct,sub_003_day_12_data.csv,1,300,105.0,Training at home,,,,,,,,,,,,,
3,12,2636,B,55.742043298928586,37.68904921774491,2.787102164946429,0.5920182007162578,B,454.8545419820584,Correct,sub_003_day_12_data.csv,1,300,105.0,Training at home,,,,,,,,,,,,,
3,12,2637,A,40.57781437712241,57.73657982685095,2.0288907188561205,0.906924075137178,A,1099.0361250005662,Correct,sub_003_day_12_data.csv,1,300,105.0,Training at home,,,,,,,,,,,,,
3,12,2638,B,51.45078115733753,40.78899581960558,2.5725390578668765,0.6407120480708884,B,484.5944580156356,Correct,sub_003_day_12_data.csv,1,300,105.0,Training at home,,,,,,,,,,,,,
3,12,2639,A,42.41748817851368,59.6711125594229,2.120874408925684,0.9373116442410632,A,875.9966670186259,Correct,sub_003_day_12_data.csv,1,300,105.0,Training at home,,,,,,,,,,,,,
3,12,2640,B,61.23051042820395,44.765689950547795,3.0615255214101973,0.7031778134075969,B,421.7678750283085,Correct,sub_003_day_12_data.csv,1,300,105.0,Training at home,,,,,,,,,,,,,
3,12,2641,A,48.80351229974104,59.07242794923713,2.440175614987052,0.9279075283751788,A,587.2922500129789,Correct,sub_003_day_12_data.csv,1,300,105.0,Training at home,,,,,,,,,,,,,
3,12,2642,A,37.49020607619555,46.12097693494869,1.8745103038097772,0.7244666115760956,A,1188.2285000174306,Correct,sub_003_day_12_data.csv,1,300,105.0,Training at home,,,,,,,,,,,,,
3,12,2643,B,78.40911614329679,61.46578269113358,3.920455807164839,0.9655022567480596,B,433.9076670003123,Correct,sub_003_day_12_data.csv,1,300,105.0,Training at home,,,,,,,,,,,,,
3,12,2644,A,47.21344465914833,59.38306992373925,2.360672232957417,0.932787081100141,A,597.2194169880822,Correct,sub_003_day_12_data.csv,1,300,105.0,Training at home,,,,,,,,,,,,,
3,12,2645,A,40.63101597118756,63.229928709696274,2.031550798559378,0.9932133976069408,A,597.8663749992847,Correct,sub_003_day_12_data.csv,1,300,105.0,Training at home,,,,,,,,,,,,,
3,12,2646,A,54.67043973698659,71.50337995003923,2.7335219868493295,1.1231724657894149,A,571.1405000183731,Correct,sub_003_day_12_data.csv,1,300,105.0,Training at home,,,,,,,,,,,,,
3,12,2647,A,20.19132299856832,44.94101920313237,1.009566149928416,0.7059318788669923,A,560.699250025209,Correct,sub_003_day_12_data.csv,1,300,105.0,Training at home,,,,,,,,,,,,,
3,12,2648,A,21.33995959132366,37.19919609672133,1.066997979566183,0.5843236058845293,A,504.0257499786094,Correct,sub_003_day_12_data.csv,1,300,105.0,Training at home,,,,,,,,,,,,,
3,12,2649,A,36.09969037876403,67.23567721127334,1.8049845189382017,1.056135547930355,A,708.820707979612,Correct,sub_003_day_12_data.csv,1,300,105.0,Training at home,,,,,,,,,,,,,
3,12,2650,A,40.32408541027466,53.51681037350062,2.0162042705137333,0.8406400915647378,A,1001.7249579541384,Correct,sub_003_day_12_data.csv,1,300,106.0,Training at home,,,,,,,,,,,,,
3,12,2651,A,43.58113473369277,64.1628508820558,2.179056736684638,1.0078677048222195,A,516.4992089848965,Correct,sub_003_day_12_data.csv,1,300,106.0,Training at home,,,,,,,,,,,,,
3,12,2652,A,20.788541719341698,39.5600835500997,1.0394270859670849,0.6214083392819582,A,586.072999984026,Correct,sub_003_day_12_data.csv,1,300,106.0,Training at home,,,,,,,,,,,,,
3,12,2653,A,21.08531793315257,40.04876968036661,1.0542658966576284,0.629084603065747,A,453.55729100992903,Correct,sub_003_day_12_data.csv,1,300,106.0,Training at home,,,,,,,,,,,,,
3,12,2654,B,34.74084894415538,17.302530264265986,1.737042447207769,0.2717875098336654,A,1006.741332996171,Incorrect,sub_003_day_12_data.csv,0,300,106.0,Training at home,,,,,,,,,,,,,
3,12,2655,A,35.959642605488355,63.45228157860779,1.7979821302744177,0.996706108304326,A,611.416540981736,Correct,sub_003_day_12_data.csv,1,300,106.0,Training at home,,,,,,,,,,,,,
3,12,2656,B,50.56444414858069,25.298708057984285,2.5282222074290344,0.3973911769013816,B,501.13516696728766,Correct,sub_003_day_12_data.csv,1,300,106.0,Training at home,,,,,,,,,,,,,
3,12,2657,B,81.77972083678566,57.099439166305906,4.0889860418392825,0.8969158930448198,B,642.8224589908496,Correct,sub_003_day_12_data.csv,1,300,106.0,Training at home,,,,,,,,,,,,,
3,12,2658,B,50.17043364039411,31.49613211141731,2.508521682019706,0.494740086288611,B,452.3185419966467,Correct,sub_003_day_12_data.csv,1,300,106.0,Training at home,,,,,,,,,,,,,
3,12,2659,A,60.30266636994731,78.08742164605061,3.015133318497366,1.226594350905006,A,636.1746250186116,Correct,sub_003_day_12_data.csv,1,300,106.0,Training at home,,,,,,,,,,,,,
3,12,2660,A,39.7318825466885,53.819706979145245,1.986594127334425,0.8453979803201901,A,944.3552080192604,Correct,sub_003_day_12_data.csv,1,300,106.0,Training at home,,,,,,,,,,,,,
3,12,2661,A,62.803307090174485,84.81322465517059,3.140165354508724,1.3322430175197233,A,744.6839170297608,Correct,sub_003_day_12_data.csv,1,300,106.0,Training at home,,,,,,,,,,,,,
3,12,2662,A,15.469918493843608,33.15823151705784,0.7734959246921804,0.5208482827000923,A,546.4484169497155,Correct,sub_003_day_12_data.csv,1,300,106.0,Training at home,,,,,,,,,,,,,
3,12,2663,B,52.31841984729873,21.94109850004101,2.6159209923649365,0.3446499692970943,B,522.0035000238568,Correct,sub_003_day_12_data.csv,1,300,106.0,Training at home,,,,,,,,,,,,,
3,12,2664,B,80.71906765539535,67.52295792214059,4.035953382769767,1.060648142784248,B,702.0867500104941,Correct,sub_003_day_12_data.csv,1,300,106.0,Training at home,,,,,,,,,,,,,
3,12,2665,A,32.23086392661996,55.0876895638827,1.611543196330998,0.865315404185645,A,687.2476250282489,Correct,sub_003_day_12_data.csv,1,300,106.0,Training at home,,,,,,,,,,,,,
3,12,2666,A,51.35870303393117,59.082106263841965,2.5679351516965583,0.9280595549854872,A,856.0018750140443,Correct,sub_003_day_12_data.csv,1,300,106.0,Training at home,,,,,,,,,,,,,
3,12,2667,B,58.65500214002439,30.6836168826748,2.93275010700122,0.4819771269208744,B,453.11150001361966,Correct,sub_003_day_12_data.csv,1,300,106.0,Training at home,,,,,,,,,,,,,
3,12,2668,B,61.66700243099246,43.1728953858132,3.083350121549623,0.6781582548913571,B,485.8615840203129,Correct,sub_003_day_12_data.csv,1,300,106.0,Training at home,,,,,,,,,,,,,
3,12,2669,B,52.623082518982656,40.60327794752657,2.6311541259491324,0.6377947985580696,B,598.743624985218,Correct,sub_003_day_12_data.csv,1,300,106.0,Training at home,,,,,,,,,,,,,
3,12,2670,A,48.843678187153294,66.11305033104854,2.4421839093576647,1.0385013661321718,A,600.0662500155158,Correct,sub_003_day_12_data.csv,1,300,106.0,Training at home,,,,,,,,,,,,,
3,12,2671,A,41.802878291064395,56.6366637282303,2.0901439145532197,0.8896466334622192,A,1169.112000032328,Correct,sub_003_day_12_data.csv,1,300,106.0,Training at home,,,,,,,,,,,,,
3,12,2672,A,37.256823462215614,48.26700061374453,1.8628411731107808,0.7581762726947692,A,758.7082079844549,Correct,sub_003_day_12_data.csv,1,300,106.0,Training at home,,,,,,,,,,,,,
3,12,2673,A,24.48644745278543,54.338431188145925,1.2243223726392716,0.8535460811413687,A,937.8169170231558,Correct,sub_003_day_12_data.csv,1,300,106.0,Training at home,,,,,,,,,,,,,
3,12,2674,A,29.479361385287294,58.622452523158856,1.4739680692643649,0.9208393309108612,A,591.9406669563614,Correct,sub_003_day_12_data.csv,1,300,106.0,Training at home,,,,,,,,,,,,,
3,12,2675,A,40.609025920530414,66.26887244607919,2.030451296026521,1.0409490141914073,A,556.7257920047268,Correct,sub_003_day_12_data.csv,1,300,107.0,Training at home,,,,,,,,,,,,,
3,12,2676,A,41.32135056128532,61.04926317731916,2.066067528064266,0.9589595835246788,A,479.08050002297387,Correct,sub_003_day_12_data.csv,1,300,107.0,Training at home,,,,,,,,,,,,,
3,12,2677,A,56.88959105985809,72.06632044310462,2.844479552992905,1.132015114376527,A,524.378624977544,Correct,sub_003_day_12_data.csv,1,300,107.0,Training at home,,,,,,,,,,,,,
3,12,2678,A,16.953360545448874,42.00109891634806,0.8476680272724437,0.6597517189914865,A,492.4307499895803,Correct,sub_003_day_12_data.csv,1,300,107.0,Training at home,,,,,,,,,,,,,
3,12,2679,A,64.87292318024203,80.93036733800997,3.2436461590121013,1.2712512374070772,A,699.9163330183364,Correct,sub_003_day_12_data.csv,1,300,107.0,Training at home,,,,,,,,,,,,,
3,12,2680,A,43.16093272846751,60.35287473399828,2.1580466364233755,0.9480207394367702,A,552.4814169621095,Correct,sub_003_day_12_data.csv,1,300,107.0,Training at home,,,,,,,,,,,,,
3,12,2681,B,52.31553009929152,44.67168665272089,2.6157765049645763,0.7017012130582657,B,499.3937499821186,Correct,sub_003_day_12_data.csv,1,300,107.0,Training at home,,,,,,,,,,,,,
3,12,2682,B,48.7601494283978,20.815311995388377,2.43800747141989,0.3269661562344581,B,539.8096250137314,Correct,sub_003_day_12_data.csv,1,300,107.0,Training at home,,,,,,,,,,,,,
3,12,2683,B,74.91652819109093,48.52035239231374,3.745826409554547,0.7621559131264039,B,442.054332990665,Correct,sub_003_day_12_data.csv,1,300,107.0,Training at home,,,,,,,,,,,,,
3,12,2684,A,63.75722387068772,78.25711998790172,3.187861193534386,1.2292599662254349,A,612.7359589445405,Correct,sub_003_day_12_data.csv,1,300,107.0,Training at home,,,,,,,,,,,,,
3,12,2685,B,61.42232919399972,37.73274772758119,3.071116459699986,0.5927046153036302,B,454.2259160079994,Correct,sub_003_day_12_data.csv,1,300,107.0,Training at home,,,,,,,,,,,,,
3,12,2686,B,65.66946871991198,42.00383770381278,3.2834734359955986,0.6597947397643809,B,431.1929579707794,Correct,sub_003_day_12_data.csv,1,300,107.0,Training at home,,,,,,,,,,,,,
3,12,2687,B,50.19627817679221,25.419192498433247,2.5098139088396105,0.3992837420663134,B,470.07312503410503,Correct,sub_003_day_12_data.csv,1,300,107.0,Training at home,,,,,,,,,,,,,
3,12,2688,B,74.71079571318432,56.117596741036934,3.735539785659216,0.8814931482937807,B,453.55270797153935,Correct,sub_003_day_12_data.csv,1,300,107.0,Training at home,,,,,,,,,,,,,
3,12,2689,B,85.17513262088298,59.66704997472976,4.258756631044149,0.9372478293099304,B,471.9054999877699,Correct,sub_003_day_12_data.csv,1,300,107.0,Training at home,,,,,,,,,,,,,
3,12,2690,B,73.16035403922731,53.144672026791085,3.6580177019613656,0.8347945560840293,B,392.9816659656354,Correct,sub_003_day_12_data.csv,1,300,107.0,Training at home,,,,,,,,,,,,,
3,12,2691,A,55.09175360548889,70.62244145116412,2.754587680274444,1.1093347162077625,A,863.0908750346862,Correct,sub_003_day_12_data.csv,1,300,107.0,Training at home,,,,,,,,,,,,,
3,12,2692,A,38.55151169833835,54.68995781996189,1.9275755849169176,0.8590678485616395,A,860.6940000317991,Correct,sub_003_day_12_data.csv,1,300,107.0,Training at home,,,,,,,,,,,,,
3,12,2693,A,52.042211968277215,68.98523394502621,2.602110598413861,1.0836175208393375,A,560.1227909792215,Correct,sub_003_day_12_data.csv,1,300,107.0,Training at home,,,,,,,,,,,,,
3,12,2694,A,58.88284250850386,69.04801402641786,2.944142125425193,1.0846036680517968,A,502.9812090215273,Correct,sub_003_day_12_data.csv,1,300,107.0,Training at home,,,,,,,,,,,,,
3,12,2695,B,52.805386467772024,41.09286087324409,2.6402693233886008,0.6454851491718554,B,485.43745902134106,Correct,sub_003_day_12_data.csv,1,300,107.0,Training at home,,,,,,,,,,,,,
3,12,2696,B,78.08326188381191,65.71710929024,3.904163094190596,1.0322819388068776,B,513.5714170173742,Correct,sub_003_day_12_data.csv,1,300,107.0,Training at home,,,,,,,,,,,,,
3,12,2697,B,36.38450626274109,25.2488233880883,1.8192253131370544,0.3966075903390218,B,950.3467499744148,Correct,sub_003_day_12_data.csv,1,300,107.0,Training at home,,,,,,,,,,,,,
3,12,2698,B,84.19111728778626,56.67840249367978,4.209555864389313,0.8903022644567492,B,422.2653749748133,Correct,sub_003_day_12_data.csv,1,300,107.0,Training at home,,,,,,,,,,,,,
3,12,2699,B,39.93081355898627,21.00970418438235,1.9965406779493136,0.3300196615987517,B,719.1922920173965,Correct,sub_003_day_12_data.csv,1,300,107.0,Training at home,,,,,,,,,,,,,
