subject,day,trial,cat,x,y,xt,yt,resp,rt,fb,f_name,acc,n_trials,block,session_type,ns_left_digit,ns_right_digit,ns_left_size,ns_right_size,ns_congruent,ns_cue,ns_correct_side,ns_resp,ns_rt,ns_fb,acc_stroop,acc_stroop_mean,resp_key
3,17,3600,B,67.07688563833041,44.490956055911056,3.3538442819165204,0.6988623034821825,B,513.5510840045754,Correct,sub_003_day_17_data.csv,1,300,144.0,Training at home,,,,,,,,,,,,,
3,17,3601,B,68.31947683626603,48.90714158052366,3.415973841813302,0.768231583487245,B,607.7480829990236,Correct,sub_003_day_17_data.csv,1,300,144.0,Training at home,,,,,,,,,,,,,
3,17,3602,B,51.768252319053374,20.646496964466458,2.588412615952669,0.3243144159296589,B,462.4676660023397,Correct,sub_003_day_17_data.csv,1,300,144.0,Training at home,,,,,,,,,,,,,
3,17,3603,B,37.48952854545379,27.20495056143026,1.8744764272726897,0.4273343641253141,B,1308.2992080016993,Correct,sub_003_day_17_data.csv,1,300,144.0,Training at home,,,,,,,,,,,,,
3,17,3604,B,57.25923545235014,48.36054186486369,2.862961772617507,0.7596456152313869,B,868.782707999344,Correct,sub_003_day_17_data.csv,1,300,144.0,Training at home,,,,,,,,,,,,,
3,17,3605,B,65.575293720659,35.66231232463219,3.2787646860329507,0.5601822920454461,B,589.6584590009297,Correct,sub_003_day_17_data.csv,1,300,144.0,Training at home,,,,,,,,,,,,,
3,17,3606,B,45.89935133457216,29.439385623025455,2.294967566728608,0.4624327879974687,B,685.5349170000409,Correct,sub_003_day_17_data.csv,1,300,144.0,Training at home,,,,,,,,,,,,,
3,17,3607,B,79.25944164161339,55.77606767021787,3.96297208208067,0.8761284221944182,B,983.3461250018444,Correct,sub_003_day_17_data.csv,1,300,144.0,Training at home,,,,,,,,,,,,,
3,17,3608,A,37.981824775366846,54.43185612825002,1.8990912387683423,0.8550135966688341,A,747.8274580062134,Correct,sub_003_day_17_data.csv,1,300,144.0,Training at home,,,,,,,,,,,,,
3,17,3609,B,81.65921897555542,65.1321696575383,4.082960948777771,1.0230937285424315,A,1612.0648329961114,Incorrect,sub_003_day_17_data.csv,0,300,144.0,Training at home,,,,,,,,,,,,,
3,17,3610,A,67.46501882588267,81.61586668962154,3.3732509412941334,1.2820190360423946,A,745.8792079996783,Correct,sub_003_day_17_data.csv,1,300,144.0,Training at home,,,,,,,,,,,,,
3,17,3611,A,26.513653454494644,48.49761138466996,1.3256826727247324,0.7617986982136593,A,989.9214999968536,Correct,sub_003_day_17_data.csv,1,300,144.0,Training at home,,,,,,,,,,,,,
3,17,3612,B,58.32544543873304,27.43553984594641,2.916272271936652,0.4309564521364764,B,998.3565419970546,Correct,sub_003_day_17_data.csv,1,300,144.0,Training at home,,,,,,,,,,,,,
3,17,3613,A,57.3310248580145,81.4438529939998,2.866551242900725,1.279317051229984,A,552.9244589997688,Correct,sub_003_day_17_data.csv,1,300,144.0,Training at home,,,,,,,,,,,,,
3,17,3614,B,70.01234225949219,49.7785339851278,3.5006171129746093,0.7819193833707365,B,457.0459169990499,Correct,sub_003_day_17_data.csv,1,300,144.0,Training at home,,,,,,,,,,,,,
3,17,3615,A,55.65365653809883,63.27391599508102,2.7826828269049417,0.993904348270021,A,1681.7663330002688,Correct,sub_003_day_17_data.csv,1,300,144.0,Training at home,,,,,,,,,,,,,
3,17,3616,A,50.512955100664726,68.21116998669692,2.525647755033236,1.071458552614858,A,624.3782919991645,Correct,sub_003_day_17_data.csv,1,300,144.0,Training at home,,,,,,,,,,,,,
3,17,3617,A,38.30032595164808,65.5888581618557,1.9150162975824043,1.030267374793144,A,986.2319579988252,Correct,sub_003_day_17_data.csv,1,300,144.0,Training at home,,,,,,,,,,,,,
3,17,3618,B,55.76630627593856,30.340404033206937,2.7883153137969283,0.4765859520883452,B,931.4130839993596,Correct,sub_003_day_17_data.csv,1,300,144.0,Training at home,,,,,,,,,,,,,
3,17,3619,A,61.06196592328952,75.94334911558124,3.053098296164476,1.1929153383525748,A,775.0303339998936,Correct,sub_003_day_17_data.csv,1,300,144.0,Training at home,,,,,,,,,,,,,
3,17,3620,B,53.24770208249827,39.65698011720593,2.6623851041249136,0.6229303869988532,B,999.3629999953556,Correct,sub_003_day_17_data.csv,1,300,144.0,Training at home,,,,,,,,,,,,,
3,17,3621,B,70.08037158313604,47.68499454197015,3.5040185791568024,0.7490341426976141,B,862.5953330047196,Correct,sub_003_day_17_data.csv,1,300,144.0,Training at home,,,,,,,,,,,,,
3,17,3622,B,66.3636314334998,40.37706003482008,3.31818157167499,0.6342413758947241,B,909.5593749952968,Correct,sub_003_day_17_data.csv,1,300,144.0,Training at home,,,,,,,,,,,,,
3,17,3623,A,43.17759170069809,60.23673800593601,2.1588795850349043,0.9461964679783084,A,872.7180839996436,Correct,sub_003_day_17_data.csv,1,300,144.0,Training at home,,,,,,,,,,,,,
3,17,3624,A,52.82322552024164,66.29040038871341,2.6411612760120824,1.04128717432354,A,710.9177499951329,Correct,sub_003_day_17_data.csv,1,300,144.0,Training at home,,,,,,,,,,,,,
3,17,3625,A,66.2037021724967,83.10288930406273,3.3101851086248355,1.3053771326486463,A,616.2283750018105,Correct,sub_003_day_17_data.csv,1,300,145.0,Training at home,,,,,,,,,,,,,
3,17,3626,A,51.53553628484107,59.04007567137601,2.576776814242054,0.9273993399829018,A,1364.0865420020418,Correct,sub_003_day_17_data.csv,1,300,145.0,Training at home,,,,,,,,,,,,,
3,17,3627,A,30.33895928116214,40.95635623973047,1.5169479640581072,0.6433409394027186,B,485.57395799434744,Incorrect,sub_003_day_17_data.csv,0,300,145.0,Training at home,,,,,,,,,,,,,
3,17,3628,B,63.05836254465911,34.92220259492314,3.1529181272329554,0.5485566755969248,B,1181.2563329949626,Correct,sub_003_day_17_data.csv,1,300,145.0,Training at home,,,,,,,,,,,,,
3,17,3629,A,15.099350652515252,34.16886434727981,0.7549675326257627,0.5367232660746022,A,681.4081670017913,Correct,sub_003_day_17_data.csv,1,300,145.0,Training at home,,,,,,,,,,,,,
3,17,3630,B,77.56282773219422,61.151639829192646,3.878141386609711,0.9605677122118028,B,591.2726669994299,Correct,sub_003_day_17_data.csv,1,300,145.0,Training at home,,,,,,,,,,,,,
3,17,3631,B,52.43044690717837,30.766850708442792,2.6215223453589185,0.4832845607986889,B,1457.3469160022796,Correct,sub_003_day_17_data.csv,1,300,145.0,Training at home,,,,,,,,,,,,,
3,17,3632,A,60.09368583164199,77.34877266503241,3.0046842915821,1.2149916798432645,A,538.3019579967367,Correct,sub_003_day_17_data.csv,1,300,145.0,Training at home,,,,,,,,,,,,,
3,17,3633,A,14.309377644108228,37.04135491861986,0.7154688822054114,0.5818442424567415,A,600.8666670022649,Correct,sub_003_day_17_data.csv,1,300,145.0,Training at home,,,,,,,,,,,,,
3,17,3634,A,22.475838690626468,48.174215940051056,1.1237919345313232,0.7567188144485636,A,1230.0295000022743,Correct,sub_003_day_17_data.csv,1,300,145.0,Training at home,,,,,,,,,,,,,
3,17,3635,B,78.14939578576286,60.12530066346058,3.907469789288143,0.9444460142960264,B,748.1669160042657,Correct,sub_003_day_17_data.csv,1,300,145.0,Training at home,,,,,,,,,,,,,
3,17,3636,B,58.05355191549327,32.83742153596499,2.9026775957746636,0.5158090113010944,B,491.1826659954386,Correct,sub_003_day_17_data.csv,1,300,145.0,Training at home,,,,,,,,,,,,,
3,17,3637,B,85.63404551537911,57.30320795566279,4.281702275768955,0.900116685703192,B,439.2972909990931,Correct,sub_003_day_17_data.csv,1,300,145.0,Training at home,,,,,,,,,,,,,
3,17,3638,B,78.9909264028968,47.68999033634871,3.94954632014484,0.7491126164522066,B,838.874165994639,Correct,sub_003_day_17_data.csv,1,300,145.0,Training at home,,,,,,,,,,,,,
3,17,3639,A,28.171612258702947,45.323751198386155,1.4085806129351477,0.7119438189899078,A,799.0667499980191,Correct,sub_003_day_17_data.csv,1,300,145.0,Training at home,,,,,,,,,,,,,
3,17,3640,B,83.68398143315895,54.61271715964318,4.184199071657947,0.8578545551065613,B,393.19516699470114,Correct,sub_003_day_17_data.csv,1,300,145.0,Training at home,,,,,,,,,,,,,
3,17,3641,B,40.832613923567074,27.039308558677675,2.0416306961783537,0.424732465630447,B,932.9066249993048,Correct,sub_003_day_17_data.csv,1,300,145.0,Training at home,,,,,,,,,,,,,
3,17,3642,A,39.614515358730394,69.29424548836332,1.9807257679365196,1.0884714628114491,A,1115.6748330031403,Correct,sub_003_day_17_data.csv,1,300,145.0,Training at home,,,,,,,,,,,,,
3,17,3643,B,82.29712569943271,53.81820367096857,4.114856284971636,0.8453743664105704,B,1024.3278330017347,Correct,sub_003_day_17_data.csv,1,300,145.0,Training at home,,,,,,,,,,,,,
3,17,3644,B,68.22031070775351,58.26687424440108,3.411015535387676,0.9152539203692538,B,1234.0964999966673,Correct,sub_003_day_17_data.csv,1,300,145.0,Training at home,,,,,,,,,,,,,
3,17,3645,B,61.794907950849584,47.019393842011304,3.089745397542479,0.7385789113515393,B,526.4982500011683,Correct,sub_003_day_17_data.csv,1,300,145.0,Training at home,,,,,,,,,,,,,
3,17,3646,A,50.26440856649115,76.51923173431122,2.513220428324558,1.2019612813742355,A,864.0298750033253,Correct,sub_003_day_17_data.csv,1,300,145.0,Training at home,,,,,,,,,,,,,
3,17,3647,A,14.366347712360628,39.47130742876359,0.7183173856180315,0.6200138472289395,A,682.9916660062736,Correct,sub_003_day_17_data.csv,1,300,145.0,Training at home,,,,,,,,,,,,,
3,17,3648,B,83.84045155611119,66.28805448160827,4.1920225778055595,1.0412503249009024,B,874.5444579981267,Correct,sub_003_day_17_data.csv,1,300,145.0,Training at home,,,,,,,,,,,,,
3,17,3649,A,35.55181663289802,58.87631317065365,1.7775908316449007,0.9248269646368874,A,657.1319580034469,Correct,sub_003_day_17_data.csv,1,300,145.0,Training at home,,,,,,,,,,,,,
3,17,3650,A,42.11946148991153,59.96128556861232,2.1059730744955765,0.9418696712107608,A,1091.679541998019,Correct,sub_003_day_17_data.csv,1,300,146.0,Training at home,,,,,,,,,,,,,
3,17,3651,B,42.425678709539994,24.219403989721556,2.121283935477,0.3804375082421628,B,604.0190829953644,Correct,sub_003_day_17_data.csv,1,300,146.0,Training at home,,,,,,,,,,,,,
3,17,3652,B,34.07179667280603,13.302973947987104,1.7035898336403017,0.2089626261294634,B,929.325750003045,Correct,sub_003_day_17_data.csv,1,300,146.0,Training at home,,,,,,,,,,,,,
3,17,3653,B,48.864839540878144,36.23064754811474,2.443241977043907,0.5691096808597916,B,1142.597250000108,Correct,sub_003_day_17_data.csv,1,300,146.0,Training at home,,,,,,,,,,,,,
3,17,3654,B,43.74951698024484,33.788103333096366,2.187475849012242,0.5307422860499417,B,448.7625829933677,Correct,sub_003_day_17_data.csv,1,300,146.0,Training at home,,,,,,,,,,,,,
3,17,3655,B,47.31988272827576,29.906137769826195,2.365994136413788,0.4697645135746511,B,598.8076249996084,Correct,sub_003_day_17_data.csv,1,300,146.0,Training at home,,,,,,,,,,,,,
3,17,3656,B,40.037951374492735,30.794836121371947,2.0018975687246368,0.4837241546370186,B,458.75479099777294,Correct,sub_003_day_17_data.csv,1,300,146.0,Training at home,,,,,,,,,,,,,
3,17,3657,B,43.20754562377166,29.958800583174593,2.160377281188583,0.4705917391123145,B,543.5226249974221,Correct,sub_003_day_17_data.csv,1,300,146.0,Training at home,,,,,,,,,,,,,
3,17,3658,A,38.565616570632365,52.61959534236212,1.9282808285316184,0.8265466708121626,A,1291.8860409990884,Correct,sub_003_day_17_data.csv,1,300,146.0,Training at home,,,,,,,,,,,,,
3,17,3659,A,29.945117694742507,46.48823650945319,1.4972558847371256,0.7302355114822147,A,599.2967499987572,Correct,sub_003_day_17_data.csv,1,300,146.0,Training at home,,,,,,,,,,,,,
3,17,3660,A,29.914589484482057,56.41820095666646,1.495729474224103,0.88621502827108,A,584.5512910018442,Correct,sub_003_day_17_data.csv,1,300,146.0,Training at home,,,,,,,,,,,,,
3,17,3661,B,51.608258667133235,28.803934735805544,2.5804129333566617,0.4524511488024327,B,853.6284170040744,Correct,sub_003_day_17_data.csv,1,300,146.0,Training at home,,,,,,,,,,,,,
3,17,3662,A,24.48698977123657,56.914763147308584,1.2243494885618282,0.8940150089219386,A,544.0075420046924,Correct,sub_003_day_17_data.csv,1,300,146.0,Training at home,,,,,,,,,,,,,
3,17,3663,A,25.90349506426811,52.73562459352273,1.2951747532134057,0.828369254027401,A,484.4857089992729,Correct,sub_003_day_17_data.csv,1,300,146.0,Training at home,,,,,,,,,,,,,
3,17,3664,B,88.31885470828831,62.90243588507522,4.415942735414416,0.9880691523472764,B,456.95866699679755,Correct,sub_003_day_17_data.csv,1,300,146.0,Training at home,,,,,,,,,,,,,
3,17,3665,A,44.50011312358282,74.39489708096971,2.225005656179141,1.168592310670716,A,642.5235419956152,Correct,sub_003_day_17_data.csv,1,300,146.0,Training at home,,,,,,,,,,,,,
3,17,3666,A,48.39589951556334,79.21077805719983,2.419794975778167,1.2442399921481526,A,522.2167090032599,Correct,sub_003_day_17_data.csv,1,300,146.0,Training at home,,,,,,,,,,,,,
3,17,3667,A,65.08638510689823,81.28364076233716,3.2543192553449116,1.2768004433799514,A,468.2763340024394,Correct,sub_003_day_17_data.csv,1,300,146.0,Training at home,,,,,,,,,,,,,
3,17,3668,A,36.86160137188591,47.952574170123896,1.8430800685942956,0.7532372736679046,A,889.8763339966536,Correct,sub_003_day_17_data.csv,1,300,146.0,Training at home,,,,,,,,,,,,,
3,17,3669,A,30.001672209275107,48.49491083900375,1.5000836104637554,0.7617562781415311,A,751.493957999628,Correct,sub_003_day_17_data.csv,1,300,146.0,Training at home,,,,,,,,,,,,,
3,17,3670,A,35.54819479431088,48.717736247511176,1.7774097397155442,0.7652564114735314,A,672.4406249995809,Correct,sub_003_day_17_data.csv,1,300,146.0,Training at home,,,,,,,,,,,,,
3,17,3671,B,37.663331054363184,18.036363359928384,1.8831665527181591,0.2833145331451356,B,428.155459005211,Correct,sub_003_day_17_data.csv,1,300,146.0,Training at home,,,,,,,,,,,,,
3,17,3672,A,60.56855996729868,83.05664760611874,3.0284279983649345,1.304650769755895,A,578.4538340012659,Correct,sub_003_day_17_data.csv,1,300,146.0,Training at home,,,,,,,,,,,,,
3,17,3673,B,64.3012653572792,45.34169870807337,3.21506326786396,0.7122257378128255,B,500.95758300449234,Correct,sub_003_day_17_data.csv,1,300,146.0,Training at home,,,,,,,,,,,,,
3,17,3674,B,57.63145734030664,32.654357122636696,2.881572867015332,0.5129334422208649,B,394.4639159963117,Correct,sub_003_day_17_data.csv,1,300,146.0,Training at home,,,,,,,,,,,,,
3,17,3675,B,56.24251351759784,24.051909024394295,2.812125675879892,0.3778065034792358,B,394.13966700522,Correct,sub_003_day_17_data.csv,1,300,147.0,Training at home,,,,,,,,,,,,,
3,17,3676,B,47.49069765070378,25.95324710387235,2.374534882535189,0.4076726521916298,B,376.8477920020814,Correct,sub_003_day_17_data.csv,1,300,147.0,Training at home,,,,,,,,,,,,,
3,17,3677,A,66.0124410476442,88.23301596546145,3.30062205238221,1.385960973805823,A,986.2982499980716,Correct,sub_003_day_17_data.csv,1,300,147.0,Training at home,,,,,,,,,,,,,
3,17,3678,A,58.29365778978148,78.1921606033525,2.914682889489074,1.2282395865990274,B,519.6209579953575,Incorrect,sub_003_day_17_data.csv,0,300,147.0,Training at home,,,,,,,,,,,,,
3,17,3679,A,39.28351801702078,62.22435604618986,1.964175900851039,0.9774178991453284,A,1388.723124997341,Correct,sub_003_day_17_data.csv,1,300,147.0,Training at home,,,,,,,,,,,,,
3,17,3680,A,61.19200286650214,79.08697370335535,3.059600143325107,1.2422952779055518,A,587.304166998365,Correct,sub_003_day_17_data.csv,1,300,147.0,Training at home,,,,,,,,,,,,,
3,17,3681,B,55.17847198206143,33.900081690931906,2.758923599103072,0.5325012379816276,B,500.05420800152933,Correct,sub_003_day_17_data.csv,1,300,147.0,Training at home,,,,,,,,,,,,,
3,17,3682,B,80.05644114945532,48.410061890112075,4.002822057472766,0.7604234739690166,B,527.7955420024227,Correct,sub_003_day_17_data.csv,1,300,147.0,Training at home,,,,,,,,,,,,,
3,17,3683,B,42.599578620311064,19.328392741579073,2.129978931015553,0.3036096832132155,B,545.6745420015068,Correct,sub_003_day_17_data.csv,1,300,147.0,Training at home,,,,,,,,,,,,,
3,17,3684,B,52.52782596578399,42.385231235048735,2.6263912982892,0.6657856553436686,B,452.6901249992079,Correct,sub_003_day_17_data.csv,1,300,147.0,Training at home,,,,,,,,,,,,,
3,17,3685,B,69.54663514875266,47.48464429110163,3.477331757437633,0.745887048316247,B,1050.2291250013511,Correct,sub_003_day_17_data.csv,1,300,147.0,Training at home,,,,,,,,,,,,,
3,17,3686,B,79.67619843628903,62.24619143391588,3.9838099218144514,0.9777608886136702,B,515.1213749995804,Correct,sub_003_day_17_data.csv,1,300,147.0,Training at home,,,,,,,,,,,,,
3,17,3687,A,51.335531812683975,70.30633412271148,2.566776590634199,1.104369313903699,A,770.4726250012754,Correct,sub_003_day_17_data.csv,1,300,147.0,Training at home,,,,,,,,,,,,,
3,17,3688,A,39.20388782150796,61.7823418876272,1.9601943910753985,0.9704747569787128,A,962.4203340063104,Correct,sub_003_day_17_data.csv,1,300,147.0,Training at home,,,,,,,,,,,,,
3,17,3689,A,38.01505013264714,59.632601740816405,1.900752506632357,0.9367067177169736,A,570.7372919932823,Correct,sub_003_day_17_data.csv,1,300,147.0,Training at home,,,,,,,,,,,,,
3,17,3690,B,59.035899246112706,36.87986758606924,2.951794962305635,0.5793076053687973,B,445.6086670033983,Correct,sub_003_day_17_data.csv,1,300,147.0,Training at home,,,,,,,,,,,,,
3,17,3691,A,40.01534940280411,67.51461779855762,2.0007674701402056,1.0605171364293564,A,645.3720830031671,Correct,sub_003_day_17_data.csv,1,300,147.0,Training at home,,,,,,,,,,,,,
3,17,3692,B,65.6736044352092,51.25177669915223,3.28368022176046,0.8050610258074059,B,460.4469170008087,Correct,sub_003_day_17_data.csv,1,300,147.0,Training at home,,,,,,,,,,,,,
3,17,3693,B,32.16065143966905,15.39809679195795,1.6080325719834525,0.2418727388043982,B,717.8602089988999,Correct,sub_003_day_17_data.csv,1,300,147.0,Training at home,,,,,,,,,,,,,
3,17,3694,B,42.125389920421426,24.914370871219504,2.106269496021071,0.3913540224891737,B,464.0774999934365,Correct,sub_003_day_17_data.csv,1,300,147.0,Training at home,,,,,,,,,,,,,
3,17,3695,A,48.88009494262048,65.75622815047475,2.444004747131024,1.032896416426529,A,495.84808299550787,Correct,sub_003_day_17_data.csv,1,300,147.0,Training at home,,,,,,,,,,,,,
3,17,3696,B,73.90892928366355,51.24328337636796,3.6954464641831777,0.8049276130050879,B,503.9176659993245,Correct,sub_003_day_17_data.csv,1,300,147.0,Training at home,,,,,,,,,,,,,
3,17,3697,A,60.65651175429875,77.74959644839979,3.0328255877149375,1.221287805109319,A,1146.7807090011777,Correct,sub_003_day_17_data.csv,1,300,147.0,Training at home,,,,,,,,,,,,,
3,17,3698,A,56.86314585863883,74.45916007611942,2.843157292931942,1.169601751438016,A,965.955457999371,Correct,sub_003_day_17_data.csv,1,300,147.0,Training at home,,,,,,,,,,,,,
3,17,3699,A,60.43680604754757,85.66120745548722,3.0218403023773783,1.3455631001989492,A,888.1674590011244,Correct,sub_003_day_17_data.csv,1,300,147.0,Training at home,,,,,,,,,,,,,
3,17,3700,A,65.44216212106024,89.28396707044932,3.2721081060530115,1.4024692751593828,A,507.12387500243494,Correct,sub_003_day_17_data.csv,1,300,148.0,Training at home,,,,,,,,,,,,,
3,17,3701,A,47.44689835688625,73.80398268178531,2.372344917844313,1.1593102489938254,A,514.5593330016709,Correct,sub_003_day_17_data.csv,1,300,148.0,Training at home,,,,,,,,,,,,,
3,17,3702,B,63.13072716871703,43.16279686642114,3.1565363584358517,0.677999627719686,B,576.181333999557,Correct,sub_003_day_17_data.csv,1,300,148.0,Training at home,,,,,,,,,,,,,
3,17,3703,A,55.642437304442666,78.28767122689445,2.782121865222133,1.2297398639653232,A,671.2517089981702,Correct,sub_003_day_17_data.csv,1,300,148.0,Training at home,,,,,,,,,,,,,
3,17,3704,B,37.63112718100224,23.00444229728228,1.881556359050112,0.3613529346053615,B,643.7519579994841,Correct,sub_003_day_17_data.csv,1,300,148.0,Training at home,,,,,,,,,,,,,
3,17,3705,B,39.261155599678595,14.492670521698551,1.96305777998393,0.2276503362093276,B,597.529749997193,Correct,sub_003_day_17_data.csv,1,300,148.0,Training at home,,,,,,,,,,,,,
3,17,3706,B,50.86954904335857,29.810404168104945,2.5434774521679286,0.4682607336753052,B,479.6482500023558,Correct,sub_003_day_17_data.csv,1,300,148.0,Training at home,,,,,,,,,,,,,
3,17,3707,A,55.8447597400134,84.15280404651554,2.7922379870006697,1.3218691548575732,A,721.5342079944094,Correct,sub_003_day_17_data.csv,1,300,148.0,Training at home,,,,,,,,,,,,,
3,17,3708,A,47.74738530161849,54.94506110069742,2.387369265080925,0.8630750015249666,A,3128.2444580065203,Correct,sub_003_day_17_data.csv,1,300,148.0,Training at home,,,,,,,,,,,,,
3,17,3709,B,50.907541825182705,22.75024807613543,2.545377091259135,0.3573600611166619,B,1319.0327499978594,Correct,sub_003_day_17_data.csv,1,300,148.0,Training at home,,,,,,,,,,,,,
3,17,3710,B,54.69787839167498,40.25544242506023,2.734893919583749,0.6323310109478806,B,1285.218500001065,Correct,sub_003_day_17_data.csv,1,300,148.0,Training at home,,,,,,,,,,,,,
3,17,3711,B,52.168194591403335,29.3389189676256,2.608409729570167,0.4608546614647941,B,1344.492457996239,Correct,sub_003_day_17_data.csv,1,300,148.0,Training at home,,,,,,,,,,,,,
3,17,3712,B,81.08846846912829,56.1961950670256,4.054423423456415,0.8827277679113329,B,844.0794999987702,Correct,sub_003_day_17_data.csv,1,300,148.0,Training at home,,,,,,,,,,,,,
3,17,3713,A,59.29315300564903,80.96968966541614,2.964657650282452,1.271868911081584,A,984.7062079934404,Correct,sub_003_day_17_data.csv,1,300,148.0,Training at home,,,,,,,,,,,,,
3,17,3714,B,52.04317788978156,24.96095402431039,2.6021588944890777,0.3920857489468305,B,559.837458000402,Correct,sub_003_day_17_data.csv,1,300,148.0,Training at home,,,,,,,,,,,,,
3,17,3715,A,36.04746464846492,63.27793735352133,1.8023732324232455,0.9939675156206887,A,886.2634580000304,Correct,sub_003_day_17_data.csv,1,300,148.0,Training at home,,,,,,,,,,,,,
3,17,3716,A,33.997210393707576,47.61865528982078,1.6998605196853789,0.7479920881616285,A,989.4941250022384,Correct,sub_003_day_17_data.csv,1,300,148.0,Training at home,,,,,,,,,,,,,
3,17,3717,A,58.69011048433243,68.9376039325912,2.934505524216622,1.0828693503535567,A,1202.458874999138,Correct,sub_003_day_17_data.csv,1,300,148.0,Training at home,,,,,,,,,,,,,
3,17,3718,A,36.402834544701086,52.82676797164272,1.8201417272350544,0.8298009308630268,A,902.143374994921,Correct,sub_003_day_17_data.csv,1,300,148.0,Training at home,,,,,,,,,,,,,
3,17,3719,A,23.843493232606995,42.11995417140061,1.1921746616303497,0.6616186929720546,A,670.7616659987252,Correct,sub_003_day_17_data.csv,1,300,148.0,Training at home,,,,,,,,,,,,,
3,17,3720,B,87.15178901359569,69.5400447484325,4.357589450679785,1.0923324685599052,B,668.1827499996871,Correct,sub_003_day_17_data.csv,1,300,148.0,Training at home,,,,,,,,,,,,,
3,17,3721,A,38.35068522769873,66.87103974335298,1.9175342613849369,1.050407835978144,A,600.4542500013486,Correct,sub_003_day_17_data.csv,1,300,148.0,Training at home,,,,,,,,,,,,,
3,17,3722,B,69.19931240521552,48.17465826557577,3.4599656202607765,0.7567257624816583,B,1176.7333329989924,Correct,sub_003_day_17_data.csv,1,300,148.0,Training at home,,,,,,,,,,,,,
3,17,3723,A,54.007829649936326,61.21552989921397,2.700391482496816,0.9615712950848848,A,2131.893834004586,Correct,sub_003_day_17_data.csv,1,300,148.0,Training at home,,,,,,,,,,,,,
3,17,3724,B,55.43002258290161,33.76339426448672,2.7715011291450806,0.5303541569078362,B,1117.1817499998724,Correct,sub_003_day_17_data.csv,1,300,148.0,Training at home,,,,,,,,,,,,,
3,17,3725,A,66.09203405486164,84.54684444982698,3.3046017027430823,1.3280587270388773,A,490.53133399866056,Correct,sub_003_day_17_data.csv,1,300,149.0,Training at home,,,,,,,,,,,,,
3,17,3726,A,19.17506684190432,37.1602030713563,0.958753342095216,0.5837111048743892,A,483.5563340020599,Correct,sub_003_day_17_data.csv,1,300,149.0,Training at home,,,,,,,,,,,,,
3,17,3727,B,42.1806056249698,22.30815644688079,2.10903028124849,0.3504157020432623,B,629.9648330023047,Correct,sub_003_day_17_data.csv,1,300,149.0,Training at home,,,,,,,,,,,,,
3,17,3728,B,34.17423190291952,13.11155303215099,1.708711595145976,0.2059557934147926,B,589.481834002072,Correct,sub_003_day_17_data.csv,1,300,149.0,Training at home,,,,,,,,,,,,,
3,17,3729,B,57.756599186153935,39.874496690091355,2.887829959307697,0.6263471293359077,B,452.00370800012024,Correct,sub_003_day_17_data.csv,1,300,149.0,Training at home,,,,,,,,,,,,,
3,17,3730,A,34.87795554006785,50.47057819031488,1.7438977770033928,0.7927899883256123,A,992.5954159989489,Correct,sub_003_day_17_data.csv,1,300,149.0,Training at home,,,,,,,,,,,,,
3,17,3731,A,35.59986114597939,67.76373197424863,1.7799930572989695,1.0644302127506362,A,622.3599169970839,Correct,sub_003_day_17_data.csv,1,300,149.0,Training at home,,,,,,,,,,,,,
3,17,3732,A,18.031865684998248,38.20117541388537,0.9015932842499124,0.6000626601937865,A,629.0941669940366,Correct,sub_003_day_17_data.csv,1,300,149.0,Training at home,,,,,,,,,,,,,
3,17,3733,B,55.48399112952412,44.82745174948398,2.7741995564762063,0.7041479654766489,B,1116.3144580059452,Correct,sub_003_day_17_data.csv,1,300,149.0,Training at home,,,,,,,,,,,,,
3,17,3734,A,60.11752903962649,82.62261952926809,3.0058764519813246,1.297833072667466,A,966.0302920019604,Correct,sub_003_day_17_data.csv,1,300,149.0,Training at home,,,,,,,,,,,,,
3,17,3735,A,15.941080652949603,37.16577665054568,0.7970540326474803,0.5837986544515669,A,951.0450409943588,Correct,sub_003_day_17_data.csv,1,300,149.0,Training at home,,,,,,,,,,,,,
3,17,3736,B,59.25599912372119,41.700884647240755,2.962799956186059,0.6550359642798347,B,841.7278330016416,Correct,sub_003_day_17_data.csv,1,300,149.0,Training at home,,,,,,,,,,,,,
3,17,3737,B,39.36788149198402,17.101502911269137,1.968394074599201,0.2686297795569379,B,1307.231499995396,Correct,sub_003_day_17_data.csv,1,300,149.0,Training at home,,,,,,,,,,,,,
3,17,3738,A,18.12639471814888,33.82384859905497,0.906319735907444,0.5313037713746225,A,932.3747919988818,Correct,sub_003_day_17_data.csv,1,300,149.0,Training at home,,,,,,,,,,,,,
3,17,3739,A,52.96178763228278,73.76038497185496,2.648089381614139,1.1586254177676727,A,850.2783329968224,Correct,sub_003_day_17_data.csv,1,300,149.0,Training at home,,,,,,,,,,,,,
3,17,3740,A,13.357487907267938,36.551331868703095,0.6678743953633969,0.5741469783882006,A,870.9444580017589,Correct,sub_003_day_17_data.csv,1,300,149.0,Training at home,,,,,,,,,,,,,
3,17,3741,B,87.9517318153158,69.68582669988558,4.39758659076579,1.09462240609846,B,2053.480916998524,Correct,sub_003_day_17_data.csv,1,300,149.0,Training at home,,,,,,,,,,,,,
3,17,3742,A,43.04318154601318,61.0404687372713,2.152159077300659,0.9588214407834446,A,580.2025830053026,Correct,sub_003_day_17_data.csv,1,300,149.0,Training at home,,,,,,,,,,,,,
3,17,3743,B,55.990870275925815,42.03111169475673,2.7995435137962907,0.6602231586122989,B,464.67108400247525,Correct,sub_003_day_17_data.csv,1,300,149.0,Training at home,,,,,,,,,,,,,
3,17,3744,A,58.45199370606797,85.75371564731269,2.9225996853033984,1.347016215478128,A,479.9807919989689,Correct,sub_003_day_17_data.csv,1,300,149.0,Training at home,,,,,,,,,,,,,
3,17,3745,B,62.708563988363515,35.15347587667602,3.135428199418176,0.552189507811557,B,529.584916002932,Correct,sub_003_day_17_data.csv,1,300,149.0,Training at home,,,,,,,,,,,,,
3,17,3746,A,62.47051281293838,81.76452582277494,3.1235256406469194,1.2843541682454136,A,554.3119169960846,Correct,sub_003_day_17_data.csv,1,300,149.0,Training at home,,,,,,,,,,,,,
3,17,3747,A,49.00603635359322,78.80177961498667,2.450301817679661,1.2378154596412203,A,654.2852920028963,Correct,sub_003_day_17_data.csv,1,300,149.0,Training at home,,,,,,,,,,,,,
3,17,3748,B,49.61082615166338,32.19861829168495,2.4805413075831693,0.505774713404497,B,994.377708004322,Correct,sub_003_day_17_data.csv,1,300,149.0,Training at home,,,,,,,,,,,,,
3,17,3749,A,29.41340131959648,38.413543945848694,1.4706700659798235,0.6033985372931346,A,1477.89337499853,Correct,sub_003_day_17_data.csv,1,300,149.0,Training at home,,,,,,,,,,,,,
3,17,3750,A,59.657026868179734,85.31190093058677,2.9828513434089867,1.340076206136558,A,502.5558749985066,Correct,sub_003_day_17_data.csv,1,300,150.0,Training at home,,,,,,,,,,,,,
3,17,3751,A,41.86949349448213,61.46517279692409,2.0934746747241064,0.9654926765522196,A,1028.7620840026648,Correct,sub_003_day_17_data.csv,1,300,150.0,Training at home,,,,,,,,,,,,,
3,17,3752,A,11.230908045228349,36.041886892347925,0.5615454022614174,0.5661446354125724,A,677.3072080031852,Correct,sub_003_day_17_data.csv,1,300,150.0,Training at home,,,,,,,,,,,,,
3,17,3753,B,51.67229912006767,31.44330366736144,2.583614956003383,0.4939102590298785,B,952.840792000643,Correct,sub_003_day_17_data.csv,1,300,150.0,Training at home,,,,,,,,,,,,,
3,17,3754,A,26.36291571341514,36.2820787008053,1.318145785670757,0.5699175595170831,A,695.8660829986911,Correct,sub_003_day_17_data.csv,1,300,150.0,Training at home,,,,,,,,,,,,,
3,17,3755,A,32.920397544492985,52.69838920666174,1.646019877224649,0.8277843619383208,A,537.4995840029442,Correct,sub_003_day_17_data.csv,1,300,150.0,Training at home,,,,,,,,,,,,,
3,17,3756,B,54.175836523908934,34.09660022098752,2.708791826195447,0.5355881438332125,B,965.8442080035456,Correct,sub_003_day_17_data.csv,1,300,150.0,Training at home,,,,,,,,,,,,,
3,17,3757,A,43.95061766244529,52.218211327253854,2.1975308831222646,0.8202417454465001,B,623.6546669970267,Incorrect,sub_003_day_17_data.csv,0,300,150.0,Training at home,,,,,,,,,,,,,
3,17,3758,B,73.61911983776794,56.38548146591915,3.6809559918883967,0.8857010717122752,B,871.5636670021922,Correct,sub_003_day_17_data.csv,1,300,150.0,Training at home,,,,,,,,,,,,,
3,17,3759,B,32.85226152243234,18.302363149441145,1.642613076121617,0.2874928480680842,B,609.2361670016544,Correct,sub_003_day_17_data.csv,1,300,150.0,Training at home,,,,,,,,,,,,,
3,17,3760,A,29.00791619322337,54.669306640868584,1.4503958096611682,0.8587434605990022,A,564.6216250024736,Correct,sub_003_day_17_data.csv,1,300,150.0,Training at home,,,,,,,,,,,,,
3,17,3761,A,29.266906722369637,50.32312168655679,1.4633453361184818,0.7904737469809601,A,512.8905829988071,Correct,sub_003_day_17_data.csv,1,300,150.0,Training at home,,,,,,,,,,,,,
3,17,3762,A,58.11368187133681,76.62261481197724,2.90568409356684,1.2035852189607408,A,539.1384999966249,Correct,sub_003_day_17_data.csv,1,300,150.0,Training at home,,,,,,,,,,,,,
3,17,3763,B,72.84067792947606,43.00643112355736,3.642033896473803,0.6755434403744163,B,477.351000001363,Correct,sub_003_day_17_data.csv,1,300,150.0,Training at home,,,,,,,,,,,,,
3,17,3764,A,24.876152459609543,48.801660497581935,1.243807622980477,0.766574690510933,A,490.28425000142306,Correct,sub_003_day_17_data.csv,1,300,150.0,Training at home,,,,,,,,,,,,,
3,17,3765,A,37.87557436640617,55.89390438581983,1.8937787183203083,0.8779793969947095,A,669.5479999980307,Correct,sub_003_day_17_data.csv,1,300,150.0,Training at home,,,,,,,,,,,,,
3,17,3766,B,82.62635257149067,53.21664504851043,4.131317628574533,0.8359251056654801,B,427.72449999756645,Correct,sub_003_day_17_data.csv,1,300,150.0,Training at home,,,,,,,,,,,,,
3,17,3767,A,45.770601102468504,69.15704858891607,2.288530055123425,1.0863163789544554,A,510.24433299608063,Correct,sub_003_day_17_data.csv,1,300,150.0,Training at home,,,,,,,,,,,,,
3,17,3768,A,27.39677530486988,49.84076026899438,1.369838765243494,0.782896831552014,A,545.3225000019302,Correct,sub_003_day_17_data.csv,1,300,150.0,Training at home,,,,,,,,,,,,,
3,17,3769,B,51.275840409379505,25.719297446954233,2.5637920204689753,0.4039977795742108,B,616.8224169960013,Correct,sub_003_day_17_data.csv,1,300,150.0,Training at home,,,,,,,,,,,,,
3,17,3770,A,51.86367108137047,72.28984353573549,2.5931835540685233,1.1355262069051109,A,556.915957997262,Correct,sub_003_day_17_data.csv,1,300,150.0,Training at home,,,,,,,,,,,,,
3,17,3771,B,40.795647059427026,22.61885167455215,2.0397823529713515,0.3552960912670512,B,729.6169999972335,Correct,sub_003_day_17_data.csv,1,300,150.0,Training at home,,,,,,,,,,,,,
3,17,3772,B,60.62321898428372,29.24185918184112,3.031160949214186,0.4593300499148965,B,441.2057079971419,Correct,sub_003_day_17_data.csv,1,300,150.0,Training at home,,,,,,,,,,,,,
3,17,3773,A,51.23297721526739,61.32020944247094,2.5616488607633694,0.9632155975052707,A,2319.701084001281,Correct,sub_003_day_17_data.csv,1,300,150.0,Training at home,,,,,,,,,,,,,
3,17,3774,B,75.10181998663893,58.131689935169206,3.7550909993319466,0.9131304502054366,B,467.8239580025547,Correct,sub_003_day_17_data.csv,1,300,150.0,Training at home,,,,,,,,,,,,,
3,17,3775,A,45.851843208169946,68.82294980927693,2.2925921604084976,1.0810683675960175,A,594.833084003767,Correct,sub_003_day_17_data.csv,1,300,151.0,Training at home,,,,,,,,,,,,,
3,17,3776,B,40.83320973641579,28.773926542341112,2.0416604868207897,0.451979781201756,B,459.8329159998684,Correct,sub_003_day_17_data.csv,1,300,151.0,Training at home,,,,,,,,,,,,,
3,17,3777,B,44.33542050727027,30.158290652922467,2.2167710253635136,0.4737253218002347,B,418.3191250049276,Correct,sub_003_day_17_data.csv,1,300,151.0,Training at home,,,,,,,,,,,,,
3,17,3778,B,52.121077674722386,27.288910283903476,2.6060538837361196,0.4286532003619106,B,419.3716250010766,Correct,sub_003_day_17_data.csv,1,300,151.0,Training at home,,,,,,,,,,,,,
3,17,3779,B,66.59461400169671,57.56994048986024,3.3297307000848355,0.9043065105527328,B,503.1836249982007,Correct,sub_003_day_17_data.csv,1,300,151.0,Training at home,,,,,,,,,,,,,
3,17,3780,A,49.688674207315856,60.23057311129881,2.4844337103657925,0.9460996300397962,B,674.5112089993199,Incorrect,sub_003_day_17_data.csv,0,300,151.0,Training at home,,,,,,,,,,,,,
3,17,3781,A,41.27431117607928,48.625519899055014,2.0637155588039637,0.7638078804592775,A,1171.64787499496,Correct,sub_003_day_17_data.csv,1,300,151.0,Training at home,,,,,,,,,,,,,
3,17,3782,B,64.83543804276145,46.07415006049844,3.2417719021380726,0.7237310567522782,B,1111.191416006477,Correct,sub_003_day_17_data.csv,1,300,151.0,Training at home,,,,,,,,,,,,,
3,17,3783,A,14.956643853423834,38.59962940929688,0.7478321926711916,0.6063215609176781,A,564.1057500033639,Correct,sub_003_day_17_data.csv,1,300,151.0,Training at home,,,,,,,,,,,,,
3,17,3784,B,76.15011447134603,59.131468531064904,3.807505723567301,0.9288349356658476,B,1015.6619580011466,Correct,sub_003_day_17_data.csv,1,300,151.0,Training at home,,,,,,,,,,,,,
3,17,3785,A,48.3716980398396,69.34765101621574,2.41858490199198,1.0893103548812606,A,514.085625000007,Correct,sub_003_day_17_data.csv,1,300,151.0,Training at home,,,,,,,,,,,,,
3,17,3786,A,51.99878725722489,71.77203776707597,2.599939362861244,1.1273925329110752,A,547.9710420040647,Correct,sub_003_day_17_data.csv,1,300,151.0,Training at home,,,,,,,,,,,,,
3,17,3787,B,66.29903580215509,56.308069102708714,3.3149517901077545,0.8844850811544805,A,522.3599999953876,Incorrect,sub_003_day_17_data.csv,0,300,151.0,Training at home,,,,,,,,,,,,,
3,17,3788,B,43.048136431127496,34.62652225443646,2.1524068215563745,0.5439121396695054,B,1106.6097499933676,Correct,sub_003_day_17_data.csv,1,300,151.0,Training at home,,,,,,,,,,,,,
3,17,3789,B,38.48592163947442,19.922617443683176,1.924296081973721,0.3129437430067746,B,1269.7247920004884,Correct,sub_003_day_17_data.csv,1,300,151.0,Training at home,,,,,,,,,,,,,
3,17,3790,A,48.51949183589778,60.43316765884777,2.425974591794889,0.9492819777509822,A,880.044875004387,Correct,sub_003_day_17_data.csv,1,300,151.0,Training at home,,,,,,,,,,,,,
3,17,3791,A,22.270784196901104,52.04074729540174,1.1135392098450552,0.817454146952785,A,483.15924999769777,Correct,sub_003_day_17_data.csv,1,300,151.0,Training at home,,,,,,,,,,,,,
3,17,3792,A,43.17882642614465,57.04985450038993,2.158941321307233,0.896137018933958,A,1279.3036669972937,Correct,sub_003_day_17_data.csv,1,300,151.0,Training at home,,,,,,,,,,,,,
3,17,3793,A,37.644430325110235,46.61668781707045,1.882221516255512,0.7322532199039865,A,585.2468749944819,Correct,sub_003_day_17_data.csv,1,300,151.0,Training at home,,,,,,,,,,,,,
3,17,3794,B,54.01029539589964,26.98586620138432,2.700514769794982,0.4238929950451304,B,527.6710840043961,Correct,sub_003_day_17_data.csv,1,300,151.0,Training at home,,,,,,,,,,,,,
3,17,3795,A,47.26307127039976,57.99043237590115,2.363153563519988,0.9109115816531336,A,722.1595000009984,Correct,sub_003_day_17_data.csv,1,300,151.0,Training at home,,,,,,,,,,,,,
3,17,3796,B,60.39167077440562,35.753683763968645,3.019583538720281,0.5616175512582828,B,386.7862920014886,Correct,sub_003_day_17_data.csv,1,300,151.0,Training at home,,,,,,,,,,,,,
3,17,3797,B,61.03640424322449,29.4656195544607,3.0518202121612243,0.4628448696288275,B,425.1114579965361,Correct,sub_003_day_17_data.csv,1,300,151.0,Training at home,,,,,,,,,,,,,
3,17,3798,A,66.85648272637174,89.93992557477304,3.342824136318587,1.4127730472505988,A,541.5289160009706,Correct,sub_003_day_17_data.csv,1,300,151.0,Training at home,,,,,,,,,,,,,
3,17,3799,B,75.50329165958547,54.379789815024,3.7751645829792735,0.8541957409331821,B,433.2419169950299,Correct,sub_003_day_17_data.csv,1,300,151.0,Training at home,,,,,,,,,,,,,
3,17,3800,B,32.62694517065738,20.23654916487945,1.631347258532869,0.3178749709519697,B,1474.624499998754,Correct,sub_003_day_17_data.csv,1,300,152.0,Training at home,,,,,,,,,,,,,
3,17,3801,B,64.19264784063836,40.71476098199378,3.209632392031918,0.63954596996848,B,523.4829580003861,Correct,sub_003_day_17_data.csv,1,300,152.0,Training at home,,,,,,,,,,,,,
3,17,3802,B,81.00875728437398,51.84608392035747,4.050437864218699,0.8143963818079747,B,496.8520419934066,Correct,sub_003_day_17_data.csv,1,300,152.0,Training at home,,,,,,,,,,,,,
3,17,3803,A,55.24474384050998,62.898770494762935,2.762237192025499,0.9880115765308884,A,1025.4476659974898,Correct,sub_003_day_17_data.csv,1,300,152.0,Training at home,,,,,,,,,,,,,
3,17,3804,A,30.075679404400077,40.1402381618922,1.503783970220004,0.6305213866137259,A,1143.7318750031409,Correct,sub_003_day_17_data.csv,1,300,152.0,Training at home,,,,,,,,,,,,,
3,17,3805,A,48.133180662111485,70.13832866604463,2.4066590331055746,1.101730290361561,A,501.2496249983087,Correct,sub_003_day_17_data.csv,1,300,152.0,Training at home,,,,,,,,,,,,,
3,17,3806,B,35.43184763260473,14.23286623130365,1.7715923816302364,0.2235693399589489,B,541.0262080040411,Correct,sub_003_day_17_data.csv,1,300,152.0,Training at home,,,,,,,,,,,,,
3,17,3807,A,24.637280154421276,49.5383303593604,1.231864007721064,0.7781462736403542,A,467.744458001107,Correct,sub_003_day_17_data.csv,1,300,152.0,Training at home,,,,,,,,,,,,,
3,17,3808,B,53.70129437926479,36.224311539680166,2.6850647189632393,0.5690101550720359,B,414.4487500016112,Correct,sub_003_day_17_data.csv,1,300,152.0,Training at home,,,,,,,,,,,,,
3,17,3809,A,60.59163176860088,81.96225635653298,3.029581588430044,1.2874601122066367,A,503.6400000026333,Correct,sub_003_day_17_data.csv,1,300,152.0,Training at home,,,,,,,,,,,,,
3,17,3810,B,42.689922695504826,27.707235070677612,2.1344961347752416,0.4352242307466313,B,559.0904999990016,Correct,sub_003_day_17_data.csv,1,300,152.0,Training at home,,,,,,,,,,,,,
3,17,3811,B,35.578813509282845,13.310226707023348,1.778940675464142,0.209076552201996,B,451.91491700097686,Correct,sub_003_day_17_data.csv,1,300,152.0,Training at home,,,,,,,,,,,,,
3,17,3812,A,50.993520395776144,73.70481046864839,2.5496760197888073,1.1577524555126693,A,426.6998329985654,Correct,sub_003_day_17_data.csv,1,300,152.0,Training at home,,,,,,,,,,,,,
3,17,3813,A,40.80310033963512,62.18649251515774,2.0401550169817564,0.976823140190681,A,1038.5718340039602,Correct,sub_003_day_17_data.csv,1,300,152.0,Training at home,,,,,,,,,,,,,
3,17,3814,A,40.851625700926,63.84159020457145,2.0425812850463,1.002821353900859,A,550.6265000003623,Correct,sub_003_day_17_data.csv,1,300,152.0,Training at home,,,,,,,,,,,,,
3,17,3815,B,65.23550146149934,39.87900892583724,3.2617750730749666,0.6264180073692603,B,1293.6926669935929,Correct,sub_003_day_17_data.csv,1,300,152.0,Training at home,,,,,,,,,,,,,
3,17,3816,A,47.84657691290808,58.6855483943242,2.3923288456454035,0.921830438537486,A,1725.8188340056222,Correct,sub_003_day_17_data.csv,1,300,152.0,Training at home,,,,,,,,,,,,,
3,17,3817,B,49.9134274300731,39.28410502508138,2.495671371503655,0.6170732787482277,B,886.9715000037104,Correct,sub_003_day_17_data.csv,1,300,152.0,Training at home,,,,,,,,,,,,,
3,17,3818,B,47.424406297688606,32.981551548386314,2.37122031488443,0.5180730002420175,B,1171.5958330023568,Correct,sub_003_day_17_data.csv,1,300,152.0,Training at home,,,,,,,,,,,,,
3,17,3819,A,37.190966165820946,62.91177883243483,1.8595483082910471,0.9882159110212156,A,1049.8709160019644,Correct,sub_003_day_17_data.csv,1,300,152.0,Training at home,,,,,,,,,,,,,
3,17,3820,A,42.748800144728186,68.97032217663586,2.1374400072364095,1.083383287329202,A,1606.448124999588,Correct,sub_003_day_17_data.csv,1,300,152.0,Training at home,,,,,,,,,,,,,
3,17,3821,B,52.818915537287474,34.74417094047787,2.640945776864374,0.5457601609083663,B,1014.4929579983,Correct,sub_003_day_17_data.csv,1,300,152.0,Training at home,,,,,,,,,,,,,
3,17,3822,B,44.89812020968925,24.073462586475323,2.2449060104844625,0.378145066040698,B,579.6460419951472,Correct,sub_003_day_17_data.csv,1,300,152.0,Training at home,,,,,,,,,,,,,
3,17,3823,B,79.50995444119317,66.30776484859038,3.9754977220596586,1.0415599346214552,B,1440.157958997588,Correct,sub_003_day_17_data.csv,1,300,152.0,Training at home,,,,,,,,,,,,,
3,17,3824,B,38.48149378774959,23.10256064802123,1.9240746893874796,0.3628941740546807,B,665.7714159955503,Correct,sub_003_day_17_data.csv,1,300,152.0,Training at home,,,,,,,,,,,,,
3,17,3825,A,23.37600335216601,52.43842944570159,1.1688001676083004,0.8237009235620139,A,544.9430830049096,Correct,sub_003_day_17_data.csv,1,300,153.0,Training at home,,,,,,,,,,,,,
3,17,3826,B,53.37853087164211,42.55780897962051,2.6689265435821055,0.6684965002162676,B,421.11916699650465,Correct,sub_003_day_17_data.csv,1,300,153.0,Training at home,,,,,,,,,,,,,
3,17,3827,B,51.284629732229675,23.003823465235477,2.564231486611484,0.3613432140143013,B,616.3986249957816,Correct,sub_003_day_17_data.csv,1,300,153.0,Training at home,,,,,,,,,,,,,
3,17,3828,B,47.33999669875205,30.187192823263437,2.366999834937603,0.4741793160303147,B,983.9507500000764,Correct,sub_003_day_17_data.csv,1,300,153.0,Training at home,,,,,,,,,,,,,
3,17,3829,A,31.198156680334975,59.10482575431177,1.559907834016749,0.9284164319072532,A,570.0509590024012,Correct,sub_003_day_17_data.csv,1,300,153.0,Training at home,,,,,,,,,,,,,
3,17,3830,B,41.87483919749942,15.065097611236734,2.093741959874971,0.2366419999053723,B,535.2838749968214,Correct,sub_003_day_17_data.csv,1,300,153.0,Training at home,,,,,,,,,,,,,
3,17,3831,A,44.38796537960216,56.87488868830061,2.2193982689801084,0.8933886623845121,A,1812.6062500014089,Correct,sub_003_day_17_data.csv,1,300,153.0,Training at home,,,,,,,,,,,,,
3,17,3832,A,14.97367851695756,33.65909647897569,0.748683925847878,0.5287158511241006,A,512.3585000037565,Correct,sub_003_day_17_data.csv,1,300,153.0,Training at home,,,,,,,,,,,,,
3,17,3833,B,56.37816653332857,26.02391339902582,2.8189083266664285,0.4087826757601824,B,388.54654200258665,Correct,sub_003_day_17_data.csv,1,300,153.0,Training at home,,,,,,,,,,,,,
3,17,3834,B,71.40343601953306,59.48410054032652,3.5701718009766528,0.9343740663144324,B,404.4087910006056,Correct,sub_003_day_17_data.csv,1,300,153.0,Training at home,,,,,,,,,,,,,
3,17,3835,B,43.48702617332608,24.092725379253253,2.174351308666304,0.3784476452820919,B,362.4468340058229,Correct,sub_003_day_17_data.csv,1,300,153.0,Training at home,,,,,,,,,,,,,
3,17,3836,B,49.28649210874547,31.981728915392885,2.4643246054372736,0.5023678230484928,B,387.728290996165,Correct,sub_003_day_17_data.csv,1,300,153.0,Training at home,,,,,,,,,,,,,
3,17,3837,B,58.56451364985555,30.62676957106379,2.9282256824927777,0.4810841714382071,B,405.4113750025863,Correct,sub_003_day_17_data.csv,1,300,153.0,Training at home,,,,,,,,,,,,,
3,17,3838,A,49.000054811667994,68.3437329749384,2.4500027405834,1.0735408471648449,A,803.8828749995446,Correct,sub_003_day_17_data.csv,1,300,153.0,Training at home,,,,,,,,,,,,,
3,17,3839,A,35.43377245954598,62.41214739275506,1.771688622977299,0.9803677187192136,A,571.78825000301,Correct,sub_003_day_17_data.csv,1,300,153.0,Training at home,,,,,,,,,,,,,
3,17,3840,A,22.359550067965905,34.913233081031755,1.117977503398295,0.5484157828021875,A,1377.2217910009203,Correct,sub_003_day_17_data.csv,1,300,153.0,Training at home,,,,,,,,,,,,,
3,17,3841,B,58.71787157289955,48.06861470533069,2.935893578644978,0.755060034132526,B,991.7197910035612,Correct,sub_003_day_17_data.csv,1,300,153.0,Training at home,,,,,,,,,,,,,
3,17,3842,B,70.69839238653799,53.55562687426576,3.5349196193268995,0.8412498197329471,B,593.4472910012119,Correct,sub_003_day_17_data.csv,1,300,153.0,Training at home,,,,,,,,,,,,,
3,17,3843,A,61.43703538213899,71.86518068867453,3.07185176910695,1.1288556185022147,A,618.9955829977407,Correct,sub_003_day_17_data.csv,1,300,153.0,Training at home,,,,,,,,,,,,,
3,17,3844,B,67.58316355835268,49.65167816686817,3.379158177917634,0.7799267368371888,B,440.9130409985664,Correct,sub_003_day_17_data.csv,1,300,153.0,Training at home,,,,,,,,,,,,,
3,17,3845,B,45.52183111737276,18.474160677780407,2.276091555868638,0.2901914373327618,B,457.771875000617,Correct,sub_003_day_17_data.csv,1,300,153.0,Training at home,,,,,,,,,,,,,
3,17,3846,A,61.02508012727414,73.28574194962634,3.0512540063637066,1.151169742609117,A,954.1387909994228,Correct,sub_003_day_17_data.csv,1,300,153.0,Training at home,,,,,,,,,,,,,
3,17,3847,A,45.0007251056796,54.66093814222413,2.25003625528398,0.8586120085296872,A,1363.3835000000545,Correct,sub_003_day_17_data.csv,1,300,153.0,Training at home,,,,,,,,,,,,,
3,17,3848,B,69.07626207341082,58.74095810507829,3.453813103670541,0.9227008122386988,B,492.1049589975155,Correct,sub_003_day_17_data.csv,1,300,153.0,Training at home,,,,,,,,,,,,,
3,17,3849,A,55.20356528545837,84.55723621524379,2.760178264272918,1.3282219605083334,A,941.2962499991409,Correct,sub_003_day_17_data.csv,1,300,153.0,Training at home,,,,,,,,,,,,,
3,17,3850,B,52.648253981812275,36.76634391673025,2.632412699090614,0.5775243797407776,B,465.5528340008459,Correct,sub_003_day_17_data.csv,1,300,154.0,Training at home,,,,,,,,,,,,,
3,17,3851,B,70.2470590381246,56.157927338487745,3.5123529519062298,0.8821266598371125,B,461.55383400036953,Correct,sub_003_day_17_data.csv,1,300,154.0,Training at home,,,,,,,,,,,,,
3,17,3852,A,35.284009308269034,67.6522769978454,1.7642004654134518,1.0626794820752643,A,974.4322919941624,Correct,sub_003_day_17_data.csv,1,300,154.0,Training at home,,,,,,,,,,,,,
3,17,3853,A,35.66395519519984,55.37126589221323,1.783197759759992,0.8697698107347209,A,748.4824159982963,Correct,sub_003_day_17_data.csv,1,300,154.0,Training at home,,,,,,,,,,,,,
3,17,3854,A,50.41551636343999,67.55837310187658,2.5207758181719995,1.0612044431266687,A,1396.1285830009729,Correct,sub_003_day_17_data.csv,1,300,154.0,Training at home,,,,,,,,,,,,,
3,17,3855,B,86.7966120414697,69.76321137682277,4.339830602073485,1.0958379617612914,B,1183.2324170027275,Correct,sub_003_day_17_data.csv,1,300,154.0,Training at home,,,,,,,,,,,,,
3,17,3856,A,31.01688237988656,60.88654576477972,1.550844118994328,0.9564036243854536,A,693.6735839990433,Correct,sub_003_day_17_data.csv,1,300,154.0,Training at home,,,,,,,,,,,,,
3,17,3857,A,27.382957569291943,59.52342224560298,1.3691478784645972,0.934991730216548,A,733.6800000048243,Correct,sub_003_day_17_data.csv,1,300,154.0,Training at home,,,,,,,,,,,,,
3,17,3858,A,19.322150479691903,36.51738504411979,0.9661075239845954,0.5736137429145826,A,755.424041999504,Correct,sub_003_day_17_data.csv,1,300,154.0,Training at home,,,,,,,,,,,,,
3,17,3859,B,34.28237323806866,19.085587416329705,1.714118661903433,0.299795706082936,B,1126.5816249942873,Correct,sub_003_day_17_data.csv,1,300,154.0,Training at home,,,,,,,,,,,,,
3,17,3860,A,41.78686908129863,50.51103703222626,2.0893434540649314,0.7934255143282201,A,1483.178417001909,Correct,sub_003_day_17_data.csv,1,300,154.0,Training at home,,,,,,,,,,,,,
3,17,3861,B,59.20341365546444,33.66388985323306,2.960170682773222,0.5287911452708648,B,458.4171670067008,Correct,sub_003_day_17_data.csv,1,300,154.0,Training at home,,,,,,,,,,,,,
3,17,3862,A,26.78780184297376,44.787292651895555,1.339390092148688,0.7035171478468559,A,686.3670419988921,Correct,sub_003_day_17_data.csv,1,300,154.0,Training at home,,,,,,,,,,,,,
3,17,3863,B,72.90396019878699,47.70276757523282,3.6451980099393495,0.7493133208512641,B,492.7149590002955,Correct,sub_003_day_17_data.csv,1,300,154.0,Training at home,,,,,,,,,,,,,
3,17,3864,B,65.46091384429533,42.76649264506111,3.2730456922147666,0.6717744955676296,B,432.7587079969817,Correct,sub_003_day_17_data.csv,1,300,154.0,Training at home,,,,,,,,,,,,,
3,17,3865,B,60.854259305874606,39.91226249941571,3.0427129652937306,0.6269403532815591,B,574.1098329963279,Correct,sub_003_day_17_data.csv,1,300,154.0,Training at home,,,,,,,,,,,,,
3,17,3866,B,72.21976669842934,54.67892225762382,3.610988334921467,0.8588945023537922,B,589.0153750005993,Correct,sub_003_day_17_data.csv,1,300,154.0,Training at home,,,,,,,,,,,,,
3,17,3867,A,56.65633867934642,84.40595219592916,2.8328169339673206,1.3258455966899114,A,546.9512910058256,Correct,sub_003_day_17_data.csv,1,300,154.0,Training at home,,,,,,,,,,,,,
3,17,3868,B,51.608033079707766,40.5837614835728,2.580401653985388,0.6374882346591636,B,577.5611249991925,Correct,sub_003_day_17_data.csv,1,300,154.0,Training at home,,,,,,,,,,,,,
3,17,3869,A,12.131968911774765,30.86835501906383,0.6065984455887381,0.4848789867814628,A,492.2796249957173,Correct,sub_003_day_17_data.csv,1,300,154.0,Training at home,,,,,,,,,,,,,
3,17,3870,B,41.06405188168384,25.64781029906788,2.053202594084192,0.4028748620810814,B,875.1944579998963,Correct,sub_003_day_17_data.csv,1,300,154.0,Training at home,,,,,,,,,,,,,
3,17,3871,A,26.076042988865773,56.049957264071246,1.3038021494432883,0.8804306698741404,A,573.4552909998456,Correct,sub_003_day_17_data.csv,1,300,154.0,Training at home,,,,,,,,,,,,,
3,17,3872,B,56.74036122891544,27.476595624937076,2.8370180614457716,0.4316013548047988,B,413.59316700254567,Correct,sub_003_day_17_data.csv,1,300,154.0,Training at home,,,,,,,,,,,,,
3,17,3873,A,44.89512969620778,73.76681737537757,2.24475648481039,1.1587264577259304,A,550.2138750016456,Correct,sub_003_day_17_data.csv,1,300,154.0,Training at home,,,,,,,,,,,,,
3,17,3874,A,56.185322293951465,79.15719769895229,2.8092661146975733,1.2433983538489168,A,938.38166599744,Correct,sub_003_day_17_data.csv,1,300,154.0,Training at home,,,,,,,,,,,,,
3,17,3875,A,27.91770905467351,57.36618452077724,1.3958854527336757,0.9011059192747516,A,583.9319999940926,Correct,sub_003_day_17_data.csv,1,300,155.0,Training at home,,,,,,,,,,,,,
3,17,3876,A,12.277605090785404,30.169245314051707,0.6138802545392701,0.4738973972148657,A,555.1742079987889,Correct,sub_003_day_17_data.csv,1,300,155.0,Training at home,,,,,,,,,,,,,
3,17,3877,A,18.242827348005022,44.15466574924909,0.9121413674002512,0.6935798676977689,A,526.0101250023581,Correct,sub_003_day_17_data.csv,1,300,155.0,Training at home,,,,,,,,,,,,,
3,17,3878,A,62.30922636135987,76.92219917318457,3.115461318067994,1.2082910791022374,A,588.6646660001134,Correct,sub_003_day_17_data.csv,1,300,155.0,Training at home,,,,,,,,,,,,,
3,17,3879,B,65.41593086522053,32.90606200346802,3.270796543261026,0.5168872132433269,B,518.5625000012806,Correct,sub_003_day_17_data.csv,1,300,155.0,Training at home,,,,,,,,,,,,,
3,17,3880,B,39.77587582428966,12.95882016504818,1.9887937912144833,0.2035566711485332,B,601.5947919950122,Correct,sub_003_day_17_data.csv,1,300,155.0,Training at home,,,,,,,,,,,,,
3,17,3881,B,64.74319996334084,39.87102529530771,3.237159998167042,0.6262926007941575,B,442.6376249975874,Correct,sub_003_day_17_data.csv,1,300,155.0,Training at home,,,,,,,,,,,,,
3,17,3882,B,37.75377093234965,25.440634185042757,1.8876885466174824,0.3996205472919784,B,502.70266699953936,Correct,sub_003_day_17_data.csv,1,300,155.0,Training at home,,,,,,,,,,,,,
3,17,3883,A,31.658385341272016,49.70217515057107,1.5829192670636008,0.7807199416023363,A,652.0348750054836,Correct,sub_003_day_17_data.csv,1,300,155.0,Training at home,,,,,,,,,,,,,
3,17,3884,A,50.57817300855315,63.675778416680025,2.528908650427658,1.0002167884272677,A,746.6593749995809,Correct,sub_003_day_17_data.csv,1,300,155.0,Training at home,,,,,,,,,,,,,
3,17,3885,B,60.96004933951352,50.88069174677526,3.048002466975676,0.7992320370061798,B,473.6330840023584,Correct,sub_003_day_17_data.csv,1,300,155.0,Training at home,,,,,,,,,,,,,
3,17,3886,A,33.56693082617909,55.45619370053221,1.6783465413089544,0.8711038536282226,A,907.7902080025524,Correct,sub_003_day_17_data.csv,1,300,155.0,Training at home,,,,,,,,,,,,,
3,17,3887,A,65.30276888789768,76.20417821722637,3.2651384443948843,1.1970124323004283,A,502.0448340001167,Correct,sub_003_day_17_data.csv,1,300,155.0,Training at home,,,,,,,,,,,,,
3,17,3888,B,53.83476318023018,22.47190049930108,2.6917381590115093,0.3529877876040254,B,430.1326249988051,Correct,sub_003_day_17_data.csv,1,300,155.0,Training at home,,,,,,,,,,,,,
3,17,3889,B,70.84062524680095,40.136615534678135,3.542031262340048,0.630464482518514,B,438.0017500006943,Correct,sub_003_day_17_data.csv,1,300,155.0,Training at home,,,,,,,,,,,,,
3,17,3890,A,54.36480121791493,69.13981396325183,2.7182400608957464,1.0860456580875848,A,529.3467910014442,Correct,sub_003_day_17_data.csv,1,300,155.0,Training at home,,,,,,,,,,,,,
3,17,3891,A,27.65529318489588,50.98867176772264,1.382764659244794,0.8009281832088936,A,551.2308329998632,Correct,sub_003_day_17_data.csv,1,300,155.0,Training at home,,,,,,,,,,,,,
3,17,3892,A,48.84888617389437,57.027480809893866,2.4424443086947183,0.8957855738254774,A,1288.222292001592,Correct,sub_003_day_17_data.csv,1,300,155.0,Training at home,,,,,,,,,,,,,
3,17,3893,B,50.51409377365342,30.628208363803893,2.525704688682671,0.4811067719417188,B,565.3141670045443,Correct,sub_003_day_17_data.csv,1,300,155.0,Training at home,,,,,,,,,,,,,
3,17,3894,B,80.4526741379666,64.97769553859234,4.02263370689833,1.02066725475618,A,477.5583330047084,Incorrect,sub_003_day_17_data.csv,0,300,155.0,Training at home,,,,,,,,,,,,,
3,17,3895,A,15.803420392275504,44.77542422104203,0.7901710196137753,0.7033307189709607,A,428.804625000339,Correct,sub_003_day_17_data.csv,1,300,155.0,Training at home,,,,,,,,,,,,,
3,17,3896,B,77.11047567998668,64.21543596835785,3.8555237839993337,1.008693709426294,B,432.07395799981896,Correct,sub_003_day_17_data.csv,1,300,155.0,Training at home,,,,,,,,,,,,,
3,17,3897,B,47.74795084116815,36.098935084619335,2.3873975420584075,0.5670407463212748,B,502.21174999751383,Correct,sub_003_day_17_data.csv,1,300,155.0,Training at home,,,,,,,,,,,,,
3,17,3898,A,34.86384826805676,65.7128235379244,1.743192413402838,1.0322146183669287,A,483.1417909954326,Correct,sub_003_day_17_data.csv,1,300,155.0,Training at home,,,,,,,,,,,,,
3,17,3899,B,55.309922941161176,33.90821432996405,2.765496147058059,0.5326289851768161,B,412.0654159996775,Correct,sub_003_day_17_data.csv,1,300,155.0,Training at home,,,,,,,,,,,,,
