subject,day,trial,cat,x,y,xt,yt,resp,rt,fb,f_name,acc,n_trials,block,session_type,ns_left_digit,ns_right_digit,ns_left_size,ns_right_size,ns_congruent,ns_cue,ns_correct_side,ns_resp,ns_rt,ns_fb,acc_stroop,acc_stroop_mean,resp_key
3,2,0,A,28.185834363085338,57.46568005085585,1.4092917181542668,0.9026687914065514,A,1404.30729201762,Correct,sub_003_day_02_data.csv,1,300,0.0,Training at home,,,,,,,,,,,,,
3,2,1,A,49.88119200107474,74.21661375306687,2.494059600053737,1.1657918427047305,B,870.8991250023246,Incorrect,sub_003_day_02_data.csv,0,300,0.0,Training at home,,,,,,,,,,,,,
3,2,2,B,62.85581205830227,31.56967284299,3.1427906029151136,0.4958952613988529,B,529.5367079961579,Correct,sub_003_day_02_data.csv,1,300,0.0,Training at home,,,,,,,,,,,,,
3,2,3,B,48.52186752786667,22.194081914294408,2.4260933763933337,0.348623823475587,B,968.4083339816424,Correct,sub_003_day_02_data.csv,1,300,0.0,Training at home,,,,,,,,,,,,,
3,2,4,B,51.210543545816805,26.378245797246763,2.56052717729084,0.4143485160560813,B,515.6563330092467,Correct,sub_003_day_02_data.csv,1,300,0.0,Training at home,,,,,,,,,,,,,
3,2,5,B,65.32803798210688,47.027010576607395,3.266401899105344,0.7386985547387965,B,625.1592079934198,Correct,sub_003_day_02_data.csv,1,300,0.0,Training at home,,,,,,,,,,,,,
3,2,6,A,68.1159352129576,81.9305004119891,3.40579676064788,1.2869612909962025,A,786.9620420096908,Correct,sub_003_day_02_data.csv,1,300,0.0,Training at home,,,,,,,,,,,,,
3,2,7,B,52.3303534579701,23.596263808756575,2.616517672898505,0.3706492451687818,A,1049.945500009926,Incorrect,sub_003_day_02_data.csv,0,300,0.0,Training at home,,,,,,,,,,,,,
3,2,8,A,33.60128052680689,48.85134751998531,1.6800640263403444,0.7673551724337391,A,566.0521660174709,Correct,sub_003_day_02_data.csv,1,300,0.0,Training at home,,,,,,,,,,,,,
3,2,9,A,61.01932742718336,81.5331454009769,3.050966371359168,1.2807196530788876,B,1672.59999999078,Incorrect,sub_003_day_02_data.csv,0,300,0.0,Training at home,,,,,,,,,,,,,
3,2,10,B,70.63711035694824,55.303335606962456,3.5318555178474123,0.8687027643092204,B,796.1067500000354,Correct,sub_003_day_02_data.csv,1,300,0.0,Training at home,,,,,,,,,,,,,
3,2,11,B,55.30891428369891,29.686241714501463,2.7654457141849456,0.4663103944148433,B,1000.8180830045604,Correct,sub_003_day_02_data.csv,1,300,0.0,Training at home,,,,,,,,,,,,,
3,2,12,B,88.70417203852273,65.42017236023598,4.435208601926137,1.027617664417477,B,716.8464170244988,Correct,sub_003_day_02_data.csv,1,300,0.0,Training at home,,,,,,,,,,,,,
3,2,13,B,42.02564205983043,20.364122611177883,2.1012821029915214,0.3198788899603911,A,849.8296670150012,Incorrect,sub_003_day_02_data.csv,0,300,0.0,Training at home,,,,,,,,,,,,,
3,2,14,A,28.797064933248187,60.58014527202421,1.4398532466624092,0.9515906966999684,A,598.4568340063561,Correct,sub_003_day_02_data.csv,1,300,0.0,Training at home,,,,,,,,,,,,,
3,2,15,B,56.24311719748773,24.255333224375537,2.8121558598743865,0.381001883340353,B,512.9293750214856,Correct,sub_003_day_02_data.csv,1,300,0.0,Training at home,,,,,,,,,,,,,
3,2,16,A,26.55466497077807,48.66776510295929,1.3277332485389035,0.764471466570453,A,539.9949589918833,Correct,sub_003_day_02_data.csv,1,300,0.0,Training at home,,,,,,,,,,,,,
3,2,17,A,51.6115183358853,64.77011537382008,2.580575916794265,1.0174065931527825,B,644.289582996862,Incorrect,sub_003_day_02_data.csv,0,300,0.0,Training at home,,,,,,,,,,,,,
3,2,18,B,89.19262413460369,67.40023620462236,4.459631206730185,1.058720434553292,B,515.9909590147436,Correct,sub_003_day_02_data.csv,1,300,0.0,Training at home,,,,,,,,,,,,,
3,2,19,B,47.63048870148883,17.912372231783213,2.3815244350744416,0.2813668850586797,B,1048.0450420000125,Correct,sub_003_day_02_data.csv,1,300,0.0,Training at home,,,,,,,,,,,,,
3,2,20,A,36.32673749515746,61.32253415344825,1.816336874757873,0.9632521139799112,A,597.9179580172058,Correct,sub_003_day_02_data.csv,1,300,0.0,Training at home,,,,,,,,,,,,,
3,2,21,B,70.31605657051858,60.02670038555188,3.515802828525929,0.9428972047524268,B,500.8941669948399,Correct,sub_003_day_02_data.csv,1,300,0.0,Training at home,,,,,,,,,,,,,
3,2,22,B,69.39116499026886,57.185135998644185,3.469558249513443,0.8982620157393689,B,476.12991600180976,Correct,sub_003_day_02_data.csv,1,300,0.0,Training at home,,,,,,,,,,,,,
3,2,23,A,50.577859416654086,60.74196422527231,2.5288929708327044,0.9541325428736476,B,529.8595830099657,Incorrect,sub_003_day_02_data.csv,0,300,0.0,Training at home,,,,,,,,,,,,,
3,2,24,B,78.91516705006524,64.14628307319508,3.945758352503262,1.007607458289205,B,421.2197919841856,Correct,sub_003_day_02_data.csv,1,300,0.0,Training at home,,,,,,,,,,,,,
3,2,25,A,37.7585677133349,68.15441576693146,1.887928385666745,1.0705670594154812,A,696.4638750068843,Correct,sub_003_day_02_data.csv,1,300,1.0,Training at home,,,,,,,,,,,,,
3,2,26,B,56.81871515874155,25.10865722686369,2.840935757937077,0.3944058654270961,B,1113.6547079950103,Correct,sub_003_day_02_data.csv,1,300,1.0,Training at home,,,,,,,,,,,,,
3,2,27,B,31.82166324006784,12.339528719538766,1.591083162003392,0.1938288638703162,A,465.52941598929465,Incorrect,sub_003_day_02_data.csv,0,300,1.0,Training at home,,,,,,,,,,,,,
3,2,28,A,19.031579554256457,35.6285182790815,0.9515789777128228,0.5596514564192605,A,585.994249995565,Correct,sub_003_day_02_data.csv,1,300,1.0,Training at home,,,,,,,,,,,,,
3,2,29,B,65.44047208008142,48.74753204977621,3.2720236040040707,0.7657244428410497,B,478.6262920242734,Correct,sub_003_day_02_data.csv,1,300,1.0,Training at home,,,,,,,,,,,,,
3,2,30,B,31.678257859882866,12.098603768141864,1.5839128929941433,0.1900444235834413,A,989.4596250087488,Incorrect,sub_003_day_02_data.csv,0,300,1.0,Training at home,,,,,,,,,,,,,
3,2,31,A,47.48356631254617,62.67759729728524,2.374178315627309,0.984537396069054,B,1000.3952920087612,Incorrect,sub_003_day_02_data.csv,0,300,1.0,Training at home,,,,,,,,,,,,,
3,2,32,B,51.71745942265661,24.651698103228757,2.5858729711328308,0.3872279682980845,B,704.5095420035068,Correct,sub_003_day_02_data.csv,1,300,1.0,Training at home,,,,,,,,,,,,,
3,2,33,A,32.6261587252462,43.66054387981441,1.63130793626231,0.6858182195227988,A,587.6938750152476,Correct,sub_003_day_02_data.csv,1,300,1.0,Training at home,,,,,,,,,,,,,
3,2,34,B,59.9415530972094,40.52828678637838,2.99707765486047,0.636616840153333,B,502.3830000136513,Correct,sub_003_day_02_data.csv,1,300,1.0,Training at home,,,,,,,,,,,,,
3,2,35,A,48.93133482166818,77.22550453237413,2.446566741083409,1.213055388543359,A,853.4881670202594,Correct,sub_003_day_02_data.csv,1,300,1.0,Training at home,,,,,,,,,,,,,
3,2,36,A,39.52605670639645,68.02025014179699,1.9763028353198224,1.0684595907040475,B,483.1389170140028,Incorrect,sub_003_day_02_data.csv,0,300,1.0,Training at home,,,,,,,,,,,,,
3,2,37,B,81.82265741773361,58.1965789906206,4.09113287088668,0.9141497251049588,B,516.4291249820963,Correct,sub_003_day_02_data.csv,1,300,1.0,Training at home,,,,,,,,,,,,,
3,2,38,A,46.89588526273246,73.35684427765362,2.344794263136623,1.1522866153660354,A,653.8228749996051,Correct,sub_003_day_02_data.csv,1,300,1.0,Training at home,,,,,,,,,,,,,
3,2,39,A,37.87482175945962,57.56992242078858,1.893741087972981,0.9043062267244186,A,630.7064589927904,Correct,sub_003_day_02_data.csv,1,300,1.0,Training at home,,,,,,,,,,,,,
3,2,40,A,51.471073212155346,75.2992249202216,2.5735536606077676,1.1827974591518682,A,1142.8541250061244,Correct,sub_003_day_02_data.csv,1,300,1.0,Training at home,,,,,,,,,,,,,
3,2,41,A,40.22418718855526,60.386503388815434,2.011209359427763,0.9485489771113884,B,1661.389666987816,Incorrect,sub_003_day_02_data.csv,0,300,1.0,Training at home,,,,,,,,,,,,,
3,2,42,A,61.19253042508224,77.1173248210392,3.0596265212541116,1.2113561056113726,A,1470.676958997501,Correct,sub_003_day_02_data.csv,1,300,1.0,Training at home,,,,,,,,,,,,,
3,2,43,A,23.37463643731651,41.48226378167533,1.1687318218658256,0.6516018757539258,A,646.0807499825023,Correct,sub_003_day_02_data.csv,1,300,1.0,Training at home,,,,,,,,,,,,,
3,2,44,B,52.74797363087586,21.812460236756227,2.6373986815437935,0.3426293241825642,B,1243.5967920173423,Correct,sub_003_day_02_data.csv,1,300,1.0,Training at home,,,,,,,,,,,,,
3,2,45,A,45.929223493413616,63.45602103949404,2.296461174670681,0.9967648476185692,A,790.7677500043064,Correct,sub_003_day_02_data.csv,1,300,1.0,Training at home,,,,,,,,,,,,,
3,2,46,A,29.031536969919852,59.76808707139784,1.4515768484959926,0.9388349163130926,A,621.4364159968682,Correct,sub_003_day_02_data.csv,1,300,1.0,Training at home,,,,,,,,,,,,,
3,2,47,B,71.36791434894918,61.028676417409464,3.568395717447459,0.9586362074562113,B,491.7812500207219,Correct,sub_003_day_02_data.csv,1,300,1.0,Training at home,,,,,,,,,,,,,
3,2,48,A,30.52095568777529,62.06606695266444,1.5260477843887643,0.9749314998785142,A,505.7572500081733,Correct,sub_003_day_02_data.csv,1,300,1.0,Training at home,,,,,,,,,,,,,
3,2,49,B,86.21707763505795,68.41721520558185,4.310853881752897,1.0746951033446392,B,561.31366599584,Correct,sub_003_day_02_data.csv,1,300,1.0,Training at home,,,,,,,,,,,,,
3,2,50,B,64.28287130341731,53.3185776291618,3.2141435651708656,0.8375262588981591,B,524.1945829766337,Correct,sub_003_day_02_data.csv,1,300,2.0,Training at home,,,,,,,,,,,,,
3,2,51,B,56.065697942627395,49.37994532092546,2.8032848971313693,0.7756583672744254,B,479.84549999819137,Correct,sub_003_day_02_data.csv,1,300,2.0,Training at home,,,,,,,,,,,,,
3,2,52,B,43.744565625710656,28.951833470316934,2.187228281285533,0.4547743366915139,A,755.8114170096815,Incorrect,sub_003_day_02_data.csv,0,300,2.0,Training at home,,,,,,,,,,,,,
3,2,53,B,33.679182654476314,14.085674950288034,1.6839591327238157,0.2212572647233933,A,611.8992910196539,Incorrect,sub_003_day_02_data.csv,0,300,2.0,Training at home,,,,,,,,,,,,,
3,2,54,A,45.139643677686166,66.19911717584151,2.2569821838843085,1.0398533009687678,B,840.451458003372,Incorrect,sub_003_day_02_data.csv,0,300,2.0,Training at home,,,,,,,,,,,,,
3,2,55,A,17.87424091612299,38.72627135414288,0.8937120458061494,0.6083108479355006,A,650.0006660062354,Correct,sub_003_day_02_data.csv,1,300,2.0,Training at home,,,,,,,,,,,,,
3,2,56,A,45.535231984178345,55.130482637585224,2.276761599208917,0.8659875962154868,B,1776.653290988179,Incorrect,sub_003_day_02_data.csv,0,300,2.0,Training at home,,,,,,,,,,,,,
3,2,57,A,52.30588120303786,64.14651558215525,2.615294060151893,1.0076111105314105,B,989.082917018095,Incorrect,sub_003_day_02_data.csv,0,300,2.0,Training at home,,,,,,,,,,,,,
3,2,58,A,62.359385217056584,79.03692420302568,3.117969260852829,1.2415091021927938,B,556.1974590236787,Incorrect,sub_003_day_02_data.csv,0,300,2.0,Training at home,,,,,,,,,,,,,
3,2,59,A,39.04816855780834,67.31114169764602,1.952408427890417,1.0573209413103315,A,767.1187910018489,Correct,sub_003_day_02_data.csv,1,300,2.0,Training at home,,,,,,,,,,,,,
3,2,60,B,46.82522771631355,37.77101962453422,2.341261385815678,0.593305788855163,B,356.0765409783926,Correct,sub_003_day_02_data.csv,1,300,2.0,Training at home,,,,,,,,,,,,,
3,2,61,B,63.872256673964216,48.32684633640844,3.193612833698211,0.7591163271081178,B,569.8102090100292,Correct,sub_003_day_02_data.csv,1,300,2.0,Training at home,,,,,,,,,,,,,
3,2,62,A,33.4407514065463,45.87152449186773,1.672037570327315,0.7205482217630798,A,613.7892910046503,Correct,sub_003_day_02_data.csv,1,300,2.0,Training at home,,,,,,,,,,,,,
3,2,63,B,63.75773361654444,52.63855025788442,3.187886680827222,0.826844413928934,B,719.4304580043536,Correct,sub_003_day_02_data.csv,1,300,2.0,Training at home,,,,,,,,,,,,,
3,2,64,A,32.6115377109039,53.28367186619349,1.6305768855451952,0.836977960455613,A,601.6729999973904,Correct,sub_003_day_02_data.csv,1,300,2.0,Training at home,,,,,,,,,,,,,
3,2,65,B,42.170910398420205,31.654785387385576,2.10854551992101,0.4972322061198603,A,976.2863329960963,Incorrect,sub_003_day_02_data.csv,0,300,2.0,Training at home,,,,,,,,,,,,,
3,2,66,B,45.089374612152206,22.732590786672592,2.25446873060761,0.3570827010623681,B,1286.5996249893217,Correct,sub_003_day_02_data.csv,1,300,2.0,Training at home,,,,,,,,,,,,,
3,2,67,B,78.89984988032684,54.97868190631994,3.9449924940163417,0.8636031159047239,B,657.3809999972582,Correct,sub_003_day_02_data.csv,1,300,2.0,Training at home,,,,,,,,,,,,,
3,2,68,A,27.93435617072491,40.51818186782363,1.3967178085362455,0.6364581124638493,A,583.2616669940762,Correct,sub_003_day_02_data.csv,1,300,2.0,Training at home,,,,,,,,,,,,,
3,2,69,A,55.26353484375385,68.37578154973859,2.7631767421876923,1.0740442650005966,B,1547.267375019146,Incorrect,sub_003_day_02_data.csv,0,300,2.0,Training at home,,,,,,,,,,,,,
3,2,70,A,17.026215530185418,40.91412344998581,0.851310776509271,0.6426775482927065,A,506.6088339954149,Correct,sub_003_day_02_data.csv,1,300,2.0,Training at home,,,,,,,,,,,,,
3,2,71,A,38.7780269324901,70.35689788149497,1.9389013466245049,1.1051635675693594,A,668.085333018098,Correct,sub_003_day_02_data.csv,1,300,2.0,Training at home,,,,,,,,,,,,,
3,2,72,B,46.43801602835111,24.3686891633442,2.3219008014175553,0.3827824742658767,B,598.5183750162832,Correct,sub_003_day_02_data.csv,1,300,2.0,Training at home,,,,,,,,,,,,,
3,2,73,B,58.204754438786665,29.643999396538018,2.910237721939333,0.4656468536359204,B,1275.270249985624,Correct,sub_003_day_02_data.csv,1,300,2.0,Training at home,,,,,,,,,,,,,
3,2,74,A,43.95522613597574,68.47638831169958,2.197761306798787,1.0756245923219867,A,1648.9598329935689,Correct,sub_003_day_02_data.csv,1,300,2.0,Training at home,,,,,,,,,,,,,
3,2,75,A,12.140591996699346,35.47435652241494,0.6070295998349673,0.5572298892082197,A,632.9289590066765,Correct,sub_003_day_02_data.csv,1,300,3.0,Training at home,,,,,,,,,,,,,
3,2,76,A,32.304140751997764,51.69886767463611,1.6152070375998882,0.8120839144277382,A,597.491207998246,Correct,sub_003_day_02_data.csv,1,300,3.0,Training at home,,,,,,,,,,,,,
3,2,77,A,22.39042189022736,35.94822209175977,1.1195210945113678,0.5646733521654339,A,569.74533299217,Correct,sub_003_day_02_data.csv,1,300,3.0,Training at home,,,,,,,,,,,,,
3,2,78,B,52.8060051849326,34.921568139887064,2.64030025924663,0.5485467096005229,B,519.1677499969956,Correct,sub_003_day_02_data.csv,1,300,3.0,Training at home,,,,,,,,,,,,,
3,2,79,A,61.45861059608674,84.74537893426648,3.072930529804337,1.331177299427874,A,853.4270410018507,Correct,sub_003_day_02_data.csv,1,300,3.0,Training at home,,,,,,,,,,,,,
3,2,80,B,66.01187420568891,34.605449353707165,3.3005937102844456,0.5435811273189005,B,842.5280000083148,Correct,sub_003_day_02_data.csv,1,300,3.0,Training at home,,,,,,,,,,,,,
3,2,81,A,34.38084091192909,56.393912104911465,1.7190420455964546,0.8858334998798919,A,542.100249993382,Correct,sub_003_day_02_data.csv,1,300,3.0,Training at home,,,,,,,,,,,,,
3,2,82,A,13.44785479887184,30.3518089680937,0.672392739943592,0.4767651003866199,A,539.0876670135185,Correct,sub_003_day_02_data.csv,1,300,3.0,Training at home,,,,,,,,,,,,,
3,2,83,B,49.3454333958897,36.73984170501005,2.467271669794485,0.5771080839725573,B,1505.9506249963306,Correct,sub_003_day_02_data.csv,1,300,3.0,Training at home,,,,,,,,,,,,,
3,2,84,B,51.46556478040958,43.250252426037235,2.573278239020479,0.6793733764377136,A,1204.0653339936398,Incorrect,sub_003_day_02_data.csv,0,300,3.0,Training at home,,,,,,,,,,,,,
3,2,85,A,44.73313019038248,68.99554311163587,2.236656509519124,1.0837794568497654,A,1031.8457499961369,Correct,sub_003_day_02_data.csv,1,300,3.0,Training at home,,,,,,,,,,,,,
3,2,86,A,41.25986244426038,63.90526264643283,2.062993122213019,1.003821518278798,A,686.2011660123244,Correct,sub_003_day_02_data.csv,1,300,3.0,Training at home,,,,,,,,,,,,,
3,2,87,B,36.003142274064814,16.26289090640887,1.8001571137032408,0.2554568929885318,A,858.3398329792544,Incorrect,sub_003_day_02_data.csv,0,300,3.0,Training at home,,,,,,,,,,,,,
3,2,88,A,55.73369495264967,81.33345601615001,2.7866847476324836,1.277582939557027,A,1015.210167010082,Correct,sub_003_day_02_data.csv,1,300,3.0,Training at home,,,,,,,,,,,,,
3,2,89,B,50.44659401830876,33.64605099264076,2.5223297009154377,0.5285109331039389,B,703.3836669870652,Correct,sub_003_day_02_data.csv,1,300,3.0,Training at home,,,,,,,,,,,,,
3,2,90,A,26.0978062638612,55.42082371730636,1.30489031319306,0.8705482632309232,A,457.4240839865524,Correct,sub_003_day_02_data.csv,1,300,3.0,Training at home,,,,,,,,,,,,,
3,2,91,A,25.309831002521022,55.73671042550245,1.265491550126051,0.8755102000401008,A,513.0504999833647,Correct,sub_003_day_02_data.csv,1,300,3.0,Training at home,,,,,,,,,,,,,
3,2,92,A,46.67920343787585,68.95746671027416,2.3339601718937923,1.0831813541358002,A,742.1987919951789,Correct,sub_003_day_02_data.csv,1,300,3.0,Training at home,,,,,,,,,,,,,
3,2,93,B,53.59181726368992,40.60052381815993,2.6795908631844956,0.6377515367951433,B,641.7178330011666,Correct,sub_003_day_02_data.csv,1,300,3.0,Training at home,,,,,,,,,,,,,
3,2,94,B,76.72721617945763,58.3209209875109,3.8363608089728816,0.9161028846247752,B,535.1661249878816,Correct,sub_003_day_02_data.csv,1,300,3.0,Training at home,,,,,,,,,,,,,
3,2,95,B,75.27804569672283,64.533471692242,3.763902284836141,1.0136894028949617,B,644.7971249872353,Correct,sub_003_day_02_data.csv,1,300,3.0,Training at home,,,,,,,,,,,,,
3,2,96,B,45.80390476979296,24.572132089996725,2.290195238489648,0.3859781482848586,A,1093.0403749807738,Incorrect,sub_003_day_02_data.csv,0,300,3.0,Training at home,,,,,,,,,,,,,
3,2,97,B,64.62347141651543,32.35258572660376,3.2311735708257716,0.5081932282166619,B,833.8572499924339,Correct,sub_003_day_02_data.csv,1,300,3.0,Training at home,,,,,,,,,,,,,
3,2,98,A,29.66612366234672,42.4507984865231,1.483306183117336,0.6668155833214083,A,692.197500000475,Correct,sub_003_day_02_data.csv,1,300,3.0,Training at home,,,,,,,,,,,,,
3,2,99,B,38.808525524542745,26.298910174964895,1.9404262762271371,0.4131023150154378,B,927.198541990947,Correct,sub_003_day_02_data.csv,1,300,3.0,Training at home,,,,,,,,,,,,,
3,2,100,A,46.821517814777465,69.12724592674454,2.341075890738873,1.085848239831778,A,716.0610830178484,Correct,sub_003_day_02_data.csv,1,300,4.0,Training at home,,,,,,,,,,,,,
3,2,101,A,63.61952047159758,79.81586514701758,3.180976023579879,1.25374467792892,B,728.7995420047082,Incorrect,sub_003_day_02_data.csv,0,300,4.0,Training at home,,,,,,,,,,,,,
3,2,102,A,41.593028661502714,61.19111850658613,2.079651433075136,0.9611878418261672,A,641.1474590131547,Correct,sub_003_day_02_data.csv,1,300,4.0,Training at home,,,,,,,,,,,,,
3,2,103,B,83.6089403258567,58.16197208608567,4.180447016292835,0.9136061211197068,B,546.0186660056934,Correct,sub_003_day_02_data.csv,1,300,4.0,Training at home,,,,,,,,,,,,,
3,2,104,A,30.49384729807469,48.17298923662782,1.5246923649037345,0.7566995454362506,A,505.5622909858357,Correct,sub_003_day_02_data.csv,1,300,4.0,Training at home,,,,,,,,,,,,,
3,2,105,A,47.37436152783312,55.25489242466509,2.368718076391656,0.8679418205811107,A,1530.5902919790242,Correct,sub_003_day_02_data.csv,1,300,4.0,Training at home,,,,,,,,,,,,,
3,2,106,B,46.69508594674394,16.435129762133112,2.334754297337197,0.2581624146075617,A,2261.273333017016,Incorrect,sub_003_day_02_data.csv,0,300,4.0,Training at home,,,,,,,,,,,,,
3,2,107,A,44.970206921397505,64.16286294803251,2.248510346069875,1.0078678943541384,A,2901.665374985896,Correct,sub_003_day_02_data.csv,1,300,4.0,Training at home,,,,,,,,,,,,,
3,2,108,A,37.439230940908615,63.05313444098473,1.8719615470454307,0.990436319728036,A,2308.531665999908,Correct,sub_003_day_02_data.csv,1,300,4.0,Training at home,,,,,,,,,,,,,
3,2,109,A,34.65162538517794,54.14897137181645,1.7325812692588969,0.8505700533057128,A,1228.2068749773316,Correct,sub_003_day_02_data.csv,1,300,4.0,Training at home,,,,,,,,,,,,,
3,2,110,B,53.168276870415475,31.912494293933634,2.658413843520774,0.5012802881577405,A,1444.40791598754,Incorrect,sub_003_day_02_data.csv,0,300,4.0,Training at home,,,,,,,,,,,,,
3,2,111,A,25.154283147053953,47.844817303442824,1.2577141573526975,0.7515446327642091,A,3285.549624997657,Correct,sub_003_day_02_data.csv,1,300,4.0,Training at home,,,,,,,,,,,,,
3,2,112,B,40.27445247017165,27.7183565387921,2.0137226235085826,0.4353989263592593,A,2941.4511659997515,Incorrect,sub_003_day_02_data.csv,0,300,4.0,Training at home,,,,,,,,,,,,,
3,2,113,A,50.395322475630934,61.023505448242965,2.5197661237815465,0.958554982062484,A,2036.960541998269,Correct,sub_003_day_02_data.csv,1,300,4.0,Training at home,,,,,,,,,,,,,
3,2,114,A,21.767917312056294,40.044234641742726,1.088395865602815,0.6290133668456243,A,3016.190624999581,Correct,sub_003_day_02_data.csv,1,300,4.0,Training at home,,,,,,,,,,,,,
3,2,115,A,40.36307500390038,72.95339983052313,2.018153750195019,1.1459493248098516,A,1786.1191659758333,Correct,sub_003_day_02_data.csv,1,300,4.0,Training at home,,,,,,,,,,,,,
3,2,116,A,31.92448131440002,57.85948562733118,1.596224065720001,0.9088546749365396,A,589.8837079876103,Correct,sub_003_day_02_data.csv,1,300,4.0,Training at home,,,,,,,,,,,,,
3,2,117,B,54.83717993129056,40.2345576084832,2.7418589965645284,0.6320029530162307,B,903.4440410032404,Correct,sub_003_day_02_data.csv,1,300,4.0,Training at home,,,,,,,,,,,,,
3,2,118,B,84.8242777463101,65.41254821404331,4.241213887315505,1.027497904609133,B,619.1050830238964,Correct,sub_003_day_02_data.csv,1,300,4.0,Training at home,,,,,,,,,,,,,
3,2,119,A,63.71163046870589,77.83566793975764,3.1855815234352947,1.222639812933986,B,611.2289579759818,Incorrect,sub_003_day_02_data.csv,0,300,4.0,Training at home,,,,,,,,,,,,,
3,2,120,A,32.25491973591112,42.687596668929146,1.6127459867955565,0.6705352004725595,A,523.7802089832257,Correct,sub_003_day_02_data.csv,1,300,4.0,Training at home,,,,,,,,,,,,,
3,2,121,B,75.14730732421958,45.97340669761425,3.757365366210979,0.7221485837086037,B,2117.373334011063,Correct,sub_003_day_02_data.csv,1,300,4.0,Training at home,,,,,,,,,,,,,
3,2,122,A,47.437151069103315,73.58440467562995,2.371857553455166,1.1558611257386873,A,1529.7330419998616,Correct,sub_003_day_02_data.csv,1,300,4.0,Training at home,,,,,,,,,,,,,
3,2,123,A,34.7986474090299,58.31115849287078,1.739932370451495,0.9159495357175644,A,786.0965839936398,Correct,sub_003_day_02_data.csv,1,300,4.0,Training at home,,,,,,,,,,,,,
3,2,124,A,43.59565019168673,66.26018509935727,2.1797825095843364,1.0408125536682034,A,1395.1748750114348,Correct,sub_003_day_02_data.csv,1,300,4.0,Training at home,,,,,,,,,,,,,
3,2,125,B,42.70922080791547,20.66800266151353,2.1354610403957737,0.3246522266289259,A,1905.3484169999135,Incorrect,sub_003_day_02_data.csv,0,300,5.0,Training at home,,,,,,,,,,,,,
3,2,126,A,69.51109017233604,88.50806361465517,3.475554508616802,1.390281412176294,A,1518.554167007096,Correct,sub_003_day_02_data.csv,1,300,5.0,Training at home,,,,,,,,,,,,,
3,2,127,B,76.84946650355266,55.15151477860438,3.8424733251776337,0.8663179683140622,B,818.381707998924,Correct,sub_003_day_02_data.csv,1,300,5.0,Training at home,,,,,,,,,,,,,
3,2,128,B,55.258679691261094,37.950894197519915,2.7629339845630545,0.5961312520404605,A,1685.7688750023954,Incorrect,sub_003_day_02_data.csv,0,300,5.0,Training at home,,,,,,,,,,,,,
3,2,129,A,46.24556787935805,55.609203528919366,2.3122783939679024,0.8735073263921633,A,1106.03683401132,Correct,sub_003_day_02_data.csv,1,300,5.0,Training at home,,,,,,,,,,,,,
3,2,130,B,86.24076730462963,58.27261323191708,4.312038365231482,0.9153440681743502,B,1857.870000007097,Correct,sub_003_day_02_data.csv,1,300,5.0,Training at home,,,,,,,,,,,,,
3,2,131,A,47.69589028378045,76.37309756811135,2.3847945141890223,1.1996658112593757,A,1002.891540993005,Correct,sub_003_day_02_data.csv,1,300,5.0,Training at home,,,,,,,,,,,,,
3,2,132,B,84.31379966314492,62.723640662280125,4.215689983157246,0.9852606435551264,B,775.9840000071563,Correct,sub_003_day_02_data.csv,1,300,5.0,Training at home,,,,,,,,,,,,,
3,2,133,A,27.0470949498108,51.402397235120674,1.3523547474905402,0.807426967653797,A,587.7293340163305,Correct,sub_003_day_02_data.csv,1,300,5.0,Training at home,,,,,,,,,,,,,
3,2,134,B,49.36004412629988,24.795726805986952,2.4680022063149942,0.3894903658705405,B,1592.197958001634,Correct,sub_003_day_02_data.csv,1,300,5.0,Training at home,,,,,,,,,,,,,
3,2,135,B,61.82957938814293,32.91952239691315,3.0914789694071465,0.517098648609135,B,992.553958989447,Correct,sub_003_day_02_data.csv,1,300,5.0,Training at home,,,,,,,,,,,,,
3,2,136,B,76.438273378719,60.594266821071926,3.8219136689359505,0.9518125174736966,B,1837.5693749985655,Correct,sub_003_day_02_data.csv,1,300,5.0,Training at home,,,,,,,,,,,,,
3,2,137,A,58.17120431782607,85.64430863873608,2.9085602158913035,1.3452976542061506,A,972.1780420222784,Correct,sub_003_day_02_data.csv,1,300,5.0,Training at home,,,,,,,,,,,,,
3,2,138,B,36.903740540479085,17.064350708993064,1.845187027023954,0.2680461941282619,A,724.1472499736119,Incorrect,sub_003_day_02_data.csv,0,300,5.0,Training at home,,,,,,,,,,,,,
3,2,139,A,31.208896030270743,52.92392884115603,1.5604448015135373,0.8313271302324238,A,681.1380829894915,Correct,sub_003_day_02_data.csv,1,300,5.0,Training at home,,,,,,,,,,,,,
3,2,140,B,33.50097261838311,16.09041334115727,1.6750486309191557,0.2527476217290144,A,848.5396670002956,Incorrect,sub_003_day_02_data.csv,0,300,5.0,Training at home,,,,,,,,,,,,,
3,2,141,B,86.09133969728252,65.92154946626613,4.304566984864127,1.035493277582389,B,842.5813750072848,Correct,sub_003_day_02_data.csv,1,300,5.0,Training at home,,,,,,,,,,,,,
3,2,142,A,42.71179935579034,65.9008910137621,2.135589967789517,1.035168775369283,A,1113.0157080187928,Correct,sub_003_day_02_data.csv,1,300,5.0,Training at home,,,,,,,,,,,,,
3,2,143,A,56.63962685724815,72.89794780278743,2.8319813428624077,1.145078286395046,B,1852.8708750091027,Incorrect,sub_003_day_02_data.csv,0,300,5.0,Training at home,,,,,,,,,,,,,
3,2,144,B,57.19979960612207,50.17787530866133,2.859989980306103,0.7881922222121756,A,2787.003250006819,Incorrect,sub_003_day_02_data.csv,0,300,5.0,Training at home,,,,,,,,,,,,,
3,2,145,A,13.582960486791436,39.71305891970985,0.6791480243395718,0.6238112707686954,A,552.5550419988576,Correct,sub_003_day_02_data.csv,1,300,5.0,Training at home,,,,,,,,,,,,,
3,2,146,A,16.547769746786063,46.59482628209766,0.8273884873393031,0.731909819715653,A,725.1702079956885,Correct,sub_003_day_02_data.csv,1,300,5.0,Training at home,,,,,,,,,,,,,
3,2,147,A,45.496207082349166,76.37353130974516,2.2748103541174585,1.1996726244570273,B,1320.6397909962106,Incorrect,sub_003_day_02_data.csv,0,300,5.0,Training at home,,,,,,,,,,,,,
3,2,148,B,44.596345097963955,20.196296584848124,2.229817254898198,0.3172426849033974,B,775.687499990454,Correct,sub_003_day_02_data.csv,1,300,5.0,Training at home,,,,,,,,,,,,,
3,2,149,B,68.95029914800526,49.27140825405102,3.4475149574002626,0.7739534710147508,B,798.2049159763847,Correct,sub_003_day_02_data.csv,1,300,5.0,Training at home,,,,,,,,,,,,,
3,2,150,B,85.07988690410872,66.92468063076623,4.253994345205436,1.0512504250672916,B,878.1254579953384,Correct,sub_003_day_02_data.csv,1,300,6.0,Training at home,,,,,,,,,,,,,
3,2,151,B,83.36853347450003,60.194954086098605,4.168426673725001,0.9455401277003112,B,506.79675000719726,Correct,sub_003_day_02_data.csv,1,300,6.0,Training at home,,,,,,,,,,,,,
3,2,152,B,43.84125648645697,29.303638094160245,2.1920628243228486,0.4603004708003391,A,1375.113999994937,Incorrect,sub_003_day_02_data.csv,0,300,6.0,Training at home,,,,,,,,,,,,,
3,2,153,A,60.66166291274367,78.69993563806678,3.0330831456371836,1.2362156981927006,A,984.0203750063664,Correct,sub_003_day_02_data.csv,1,300,6.0,Training at home,,,,,,,,,,,,,
3,2,154,A,59.930929993085456,83.87632146816742,2.996546499654273,1.3175261766726531,A,928.819583990844,Correct,sub_003_day_02_data.csv,1,300,6.0,Training at home,,,,,,,,,,,,,
3,2,155,A,49.65455664237433,77.73355464735175,2.4827278321187167,1.221035821087705,A,602.6526250061579,Correct,sub_003_day_02_data.csv,1,300,6.0,Training at home,,,,,,,,,,,,,
3,2,156,B,60.8443955907641,47.674550707553344,3.042219779538205,0.7488700913302183,B,674.0611669956706,Correct,sub_003_day_02_data.csv,1,300,6.0,Training at home,,,,,,,,,,,,,
3,2,157,B,56.47467542147382,26.209514156568055,2.823733771073691,0.4116980856421594,B,783.7680420198012,Correct,sub_003_day_02_data.csv,1,300,6.0,Training at home,,,,,,,,,,,,,
3,2,158,B,72.03889012140633,57.37561427879154,3.6019445060703164,0.9012540415672656,B,793.9448330143932,Correct,sub_003_day_02_data.csv,1,300,6.0,Training at home,,,,,,,,,,,,,
3,2,159,B,37.88377655857154,28.249943631178972,1.8941888279285768,0.4437490768801881,A,918.227417016169,Incorrect,sub_003_day_02_data.csv,0,300,6.0,Training at home,,,,,,,,,,,,,
3,2,160,A,43.95881987708869,67.88956880143411,2.1979409938544348,1.066406853009821,A,889.4034999830183,Correct,sub_003_day_02_data.csv,1,300,6.0,Training at home,,,,,,,,,,,,,
3,2,161,A,17.755911710657532,32.08753199498997,0.8877955855328765,0.5040297739364397,A,1015.4299169953448,Correct,sub_003_day_02_data.csv,1,300,6.0,Training at home,,,,,,,,,,,,,
3,2,162,B,50.61916370691346,40.474712441587016,2.530958185345673,0.6357752963132458,B,957.5649170146788,Correct,sub_003_day_02_data.csv,1,300,6.0,Training at home,,,,,,,,,,,,,
3,2,163,A,50.34606007772777,62.5796152679931,2.5173030038863886,0.9829982979520138,B,1283.731292001903,Incorrect,sub_003_day_02_data.csv,0,300,6.0,Training at home,,,,,,,,,,,,,
3,2,164,A,45.05953125476093,75.56234479832317,2.2529765627380467,1.1869305365321547,A,993.377083010273,Correct,sub_003_day_02_data.csv,1,300,6.0,Training at home,,,,,,,,,,,,,
3,2,165,A,61.1806121019207,87.02752383219628,3.059030605096035,1.3670251476566924,A,1084.5832080231048,Correct,sub_003_day_02_data.csv,1,300,6.0,Training at home,,,,,,,,,,,,,
3,2,166,B,37.04933140918504,17.152853704346704,1.852466570459252,0.2694363959283803,A,1153.8408749911468,Incorrect,sub_003_day_02_data.csv,0,300,6.0,Training at home,,,,,,,,,,,,,
3,2,167,A,31.14071469301102,63.60054831120133,1.5570357346505512,0.999035076693764,A,1192.8685000166297,Correct,sub_003_day_02_data.csv,1,300,6.0,Training at home,,,,,,,,,,,,,
3,2,168,B,66.29598449149375,36.82139534154356,3.3147992245746876,0.5783891254995933,B,541.0342090181075,Correct,sub_003_day_02_data.csv,1,300,6.0,Training at home,,,,,,,,,,,,,
3,2,169,B,34.53574730484142,13.552269616667829,1.726787365242071,0.212878553335959,A,1025.7587090018203,Incorrect,sub_003_day_02_data.csv,0,300,6.0,Training at home,,,,,,,,,,,,,
3,2,170,B,81.75466882414726,57.55474285148647,4.087733441207363,0.9040677866073976,B,717.8455420071259,Correct,sub_003_day_02_data.csv,1,300,6.0,Training at home,,,,,,,,,,,,,
3,2,171,A,36.860879225379904,60.90066868249042,1.8430439612689953,0.9566254666580896,A,775.1798339886591,Correct,sub_003_day_02_data.csv,1,300,6.0,Training at home,,,,,,,,,,,,,
3,2,172,A,54.90432008761182,82.62552896405478,2.745216004380591,1.2978787739622255,A,696.0695419984404,Correct,sub_003_day_02_data.csv,1,300,6.0,Training at home,,,,,,,,,,,,,
3,2,173,B,41.01960544215782,26.41415153349515,2.050980272107891,0.4149125220421796,A,623.6983750131913,Incorrect,sub_003_day_02_data.csv,0,300,6.0,Training at home,,,,,,,,,,,,,
3,2,174,A,53.7677150467706,72.0904502434041,2.6883857523385295,1.1323941443932943,A,1455.1243750029244,Correct,sub_003_day_02_data.csv,1,300,6.0,Training at home,,,,,,,,,,,,,
3,2,175,B,84.33329345750083,61.87520231518597,4.216664672875042,0.971933405163852,B,535.1665840134956,Correct,sub_003_day_02_data.csv,1,300,7.0,Training at home,,,,,,,,,,,,,
3,2,176,A,42.32019505712155,65.61645982990152,2.116009752856078,1.030700940780942,A,716.8219169834629,Correct,sub_003_day_02_data.csv,1,300,7.0,Training at home,,,,,,,,,,,,,
3,2,177,B,81.7779801549207,56.699298953438685,4.0888990077460345,0.890630505279072,B,492.8572920034639,Correct,sub_003_day_02_data.csv,1,300,7.0,Training at home,,,,,,,,,,,,,
3,2,178,B,47.67033831324708,22.41937945035857,2.3835169156623537,0.3521627888964422,A,1396.8402910104487,Incorrect,sub_003_day_02_data.csv,0,300,7.0,Training at home,,,,,,,,,,,,,
3,2,179,B,54.38628673800052,40.17198749932154,2.7193143369000263,0.6310201040398478,B,741.2554589973297,Correct,sub_003_day_02_data.csv,1,300,7.0,Training at home,,,,,,,,,,,,,
3,2,180,A,45.48372410535827,62.62451081319803,2.2741862052679136,0.9837035155269876,A,838.8444579904899,Correct,sub_003_day_02_data.csv,1,300,7.0,Training at home,,,,,,,,,,,,,
3,2,181,B,59.877100049032,41.9322186120675,2.9938550024516,0.6586697497019622,B,734.4148750125896,Correct,sub_003_day_02_data.csv,1,300,7.0,Training at home,,,,,,,,,,,,,
3,2,182,B,68.38000170656863,57.14741266413329,3.419000085328432,0.8976694589865272,B,544.4486659835093,Correct,sub_003_day_02_data.csv,1,300,7.0,Training at home,,,,,,,,,,,,,
3,2,183,A,59.968244957464,69.57847878262689,2.9984122478732003,1.0929361889572695,B,1109.297165996395,Incorrect,sub_003_day_02_data.csv,0,300,7.0,Training at home,,,,,,,,,,,,,
3,2,184,A,29.05477148114271,38.00107973911844,1.4527385740571357,0.5969195646844722,A,516.0599579976406,Correct,sub_003_day_02_data.csv,1,300,7.0,Training at home,,,,,,,,,,,,,
3,2,185,B,42.85031289005852,20.728672541771523,2.142515644502926,0.3256052268794894,A,1332.0824999827892,Incorrect,sub_003_day_02_data.csv,0,300,7.0,Training at home,,,,,,,,,,,,,
3,2,186,B,75.10770151053038,59.753569975096624,3.755385075526519,0.938606882297636,B,610.0745000003371,Correct,sub_003_day_02_data.csv,1,300,7.0,Training at home,,,,,,,,,,,,,
3,2,187,A,32.51337989391809,50.80635759163857,1.6256689946959044,0.7980643988277388,A,601.6168750065845,Correct,sub_003_day_02_data.csv,1,300,7.0,Training at home,,,,,,,,,,,,,
3,2,188,B,47.23103317653528,19.463161169507856,2.361551658826764,0.3057266207288,B,1240.042083984008,Correct,sub_003_day_02_data.csv,1,300,7.0,Training at home,,,,,,,,,,,,,
3,2,189,A,36.091798891688015,69.1913569805258,1.804589944584401,1.0868552939096434,A,743.562584015308,Correct,sub_003_day_02_data.csv,1,300,7.0,Training at home,,,,,,,,,,,,,
3,2,190,A,58.844338651503534,68.37808679355643,2.942216932575177,1.0740804756858109,B,923.9227500220296,Incorrect,sub_003_day_02_data.csv,0,300,7.0,Training at home,,,,,,,,,,,,,
3,2,191,B,35.64484831864556,17.720073681773655,1.7822424159322778,0.2783462664986497,A,614.3235419876873,Incorrect,sub_003_day_02_data.csv,0,300,7.0,Training at home,,,,,,,,,,,,,
3,2,192,B,48.71740838184531,26.36853734006295,2.4358704190922653,0.4141960159672495,B,984.5926249981858,Correct,sub_003_day_02_data.csv,1,300,7.0,Training at home,,,,,,,,,,,,,
3,2,193,B,54.84850887991674,39.52379186863577,2.7424254439958373,0.6208382708825906,B,496.1758330173325,Correct,sub_003_day_02_data.csv,1,300,7.0,Training at home,,,,,,,,,,,,,
3,2,194,A,20.88804265604742,41.34358460185408,1.044402132802371,0.6494235082912643,A,535.3982500091661,Correct,sub_003_day_02_data.csv,1,300,7.0,Training at home,,,,,,,,,,,,,
3,2,195,A,59.30625027855176,78.63246693958911,2.965312513927588,1.235155902355277,A,748.2588749844581,Correct,sub_003_day_02_data.csv,1,300,7.0,Training at home,,,,,,,,,,,,,
3,2,196,B,41.659804980912256,24.156904207618865,2.082990249045613,0.3794557639606389,B,1636.8834169988986,Correct,sub_003_day_02_data.csv,1,300,7.0,Training at home,,,,,,,,,,,,,
3,2,197,B,34.99392122304158,17.09646834972372,1.749696061152079,0.2685506968491123,A,1186.7043340171222,Incorrect,sub_003_day_02_data.csv,0,300,7.0,Training at home,,,,,,,,,,,,,
3,2,198,A,67.89110654254173,83.468593754447,3.3945553271270863,1.311121604722208,A,1076.5979579882696,Correct,sub_003_day_02_data.csv,1,300,7.0,Training at home,,,,,,,,,,,,,
3,2,199,B,65.58207907933911,48.39384838418079,3.2791039539669553,0.7601687928134031,B,1209.3257080123294,Correct,sub_003_day_02_data.csv,1,300,7.0,Training at home,,,,,,,,,,,,,
3,2,200,B,53.38627656569808,37.18137355511422,2.6693138282849036,0.5840436500556232,A,937.6192909840028,Incorrect,sub_003_day_02_data.csv,0,300,8.0,Training at home,,,,,,,,,,,,,
3,2,201,B,75.36393785546278,55.94475394462454,3.768196892773139,0.8787781399966051,B,948.3959999924992,Correct,sub_003_day_02_data.csv,1,300,8.0,Training at home,,,,,,,,,,,,,
3,2,202,B,59.260155883498705,31.574989193825463,2.9630077941749353,0.495978770442496,B,584.12662500632,Correct,sub_003_day_02_data.csv,1,300,8.0,Training at home,,,,,,,,,,,,,
3,2,203,A,31.793679462236085,47.53094052475752,1.5896839731118042,0.746614267853958,A,879.358250007499,Correct,sub_003_day_02_data.csv,1,300,8.0,Training at home,,,,,,,,,,,,,
3,2,204,A,37.33409378872137,53.55194115040246,1.8667046894360684,0.8411919245178865,A,1368.0384169856552,Correct,sub_003_day_02_data.csv,1,300,8.0,Training at home,,,,,,,,,,,,,
3,2,205,B,60.395785570261154,31.20963687593822,3.019789278513058,0.490239829653263,B,554.6472920104861,Correct,sub_003_day_02_data.csv,1,300,8.0,Training at home,,,,,,,,,,,,,
3,2,206,B,36.8235398902503,11.79681343405382,1.841176994512515,0.1853039121009643,A,1172.5351250206586,Incorrect,sub_003_day_02_data.csv,0,300,8.0,Training at home,,,,,,,,,,,,,
3,2,207,A,15.285642998211262,44.20151549386465,0.7642821499105631,0.694315781765303,A,655.4144999827258,Correct,sub_003_day_02_data.csv,1,300,8.0,Training at home,,,,,,,,,,,,,
3,2,208,A,14.583749155873086,30.276519856001524,0.7291874577936542,0.4755824617793994,A,758.4635420062114,Correct,sub_003_day_02_data.csv,1,300,8.0,Training at home,,,,,,,,,,,,,
3,2,209,A,45.99607171043178,65.9887779429971,2.299803585521589,1.0365493000254395,A,704.9660420161672,Correct,sub_003_day_02_data.csv,1,300,8.0,Training at home,,,,,,,,,,,,,
3,2,210,A,61.866497138211635,88.15817401892551,3.093324856910582,1.3847853592587347,A,839.8367089976091,Correct,sub_003_day_02_data.csv,1,300,8.0,Training at home,,,,,,,,,,,,,
3,2,211,B,83.27333216342636,66.175435877713,4.163666608171318,1.039481316007628,B,1212.8859999938868,Correct,sub_003_day_02_data.csv,1,300,8.0,Training at home,,,,,,,,,,,,,
3,2,212,B,79.81332867080175,65.92313561256587,3.990666433540087,1.035518192710203,B,557.321582979057,Correct,sub_003_day_02_data.csv,1,300,8.0,Training at home,,,,,,,,,,,,,
3,2,213,B,75.56435574280573,50.355510661754735,3.7782177871402864,0.7909825118136558,B,536.0506670258474,Correct,sub_003_day_02_data.csv,1,300,8.0,Training at home,,,,,,,,,,,,,
3,2,214,B,42.949976348572605,24.348863373228877,2.1474988174286302,0.3824710514829872,A,794.5499579946045,Incorrect,sub_003_day_02_data.csv,0,300,8.0,Training at home,,,,,,,,,,,,,
3,2,215,B,86.08467417658059,57.619460501761424,4.30423370882903,0.9050843690807048,B,458.5645420011133,Correct,sub_003_day_02_data.csv,1,300,8.0,Training at home,,,,,,,,,,,,,
3,2,216,A,68.14680460460606,82.3404342760507,3.4073402302303033,1.2934005170751703,B,746.2348749977536,Incorrect,sub_003_day_02_data.csv,0,300,8.0,Training at home,,,,,,,,,,,,,
3,2,217,A,13.774704821392806,32.775737647215934,0.6887352410696402,0.5148400830423999,A,502.5965829845518,Correct,sub_003_day_02_data.csv,1,300,8.0,Training at home,,,,,,,,,,,,,
3,2,218,B,89.0796005106382,63.970582668753245,4.45398002553191,1.0048475627900686,A,463.7447499844711,Incorrect,sub_003_day_02_data.csv,0,300,8.0,Training at home,,,,,,,,,,,,,
3,2,219,A,25.74231922092758,57.57584735034354,1.287115961046379,0.9043992953002332,A,491.1660829966422,Correct,sub_003_day_02_data.csv,1,300,8.0,Training at home,,,,,,,,,,,,,
3,2,220,A,40.78501091125403,55.04112106625083,2.0392505455627012,0.8645839079354,A,1746.8860840017442,Correct,sub_003_day_02_data.csv,1,300,8.0,Training at home,,,,,,,,,,,,,
3,2,221,B,67.64069177737704,45.250048052476906,3.382034588868852,0.7107860926812328,B,456.9314580003266,Correct,sub_003_day_02_data.csv,1,300,8.0,Training at home,,,,,,,,,,,,,
3,2,222,A,32.9846207513866,41.904638045334785,1.6492310375693302,0.6582365151728156,A,527.6534169970546,Correct,sub_003_day_02_data.csv,1,300,8.0,Training at home,,,,,,,,,,,,,
3,2,223,B,55.00492466538305,24.076888958452848,2.7502462332691526,0.3781988873658634,A,1204.972584004281,Incorrect,sub_003_day_02_data.csv,0,300,8.0,Training at home,,,,,,,,,,,,,
3,2,224,A,32.99554468038311,48.50191109497674,1.6497772340191557,0.761866237905221,A,532.7164580230601,Correct,sub_003_day_02_data.csv,1,300,8.0,Training at home,,,,,,,,,,,,,
3,2,225,B,56.003666385444504,26.4605575683517,2.800183319272225,0.4156414663331175,B,2669.7691659792326,Correct,sub_003_day_02_data.csv,1,300,9.0,Training at home,,,,,,,,,,,,,
3,2,226,B,70.92410494079216,39.87473562323868,3.5462052470396084,0.6263508824890092,B,764.8921250074636,Correct,sub_003_day_02_data.csv,1,300,9.0,Training at home,,,,,,,,,,,,,
3,2,227,A,42.721462017296695,60.91998251273202,2.136073100864835,0.9569288475940878,A,621.8367079854943,Correct,sub_003_day_02_data.csv,1,300,9.0,Training at home,,,,,,,,,,,,,
3,2,228,B,40.962824096922496,15.1909330244963,2.0481412048461247,0.2386186179546607,A,744.6155420038849,Incorrect,sub_003_day_02_data.csv,0,300,9.0,Training at home,,,,,,,,,,,,,
3,2,229,B,56.47876474282763,31.85272806923402,2.823938237141382,0.5003414824954949,B,768.1126660027076,Correct,sub_003_day_02_data.csv,1,300,9.0,Training at home,,,,,,,,,,,,,
3,2,230,A,56.64372982226975,75.67470394626609,2.8321864911134873,1.1886954699008605,A,600.8797500107903,Correct,sub_003_day_02_data.csv,1,300,9.0,Training at home,,,,,,,,,,,,,
3,2,231,B,80.16614282705146,49.75684180013712,4.008307141352573,0.7815786433257014,B,1243.313292012317,Correct,sub_003_day_02_data.csv,1,300,9.0,Training at home,,,,,,,,,,,,,
3,2,232,B,39.62058214663277,19.444192730240964,1.9810291073316384,0.3054286651815454,A,743.0379579891451,Incorrect,sub_003_day_02_data.csv,0,300,9.0,Training at home,,,,,,,,,,,,,
3,2,233,A,58.96251469650842,79.27278821451293,2.948125734825421,1.2452140454214666,A,1204.1911669948604,Correct,sub_003_day_02_data.csv,1,300,9.0,Training at home,,,,,,,,,,,,,
3,2,234,A,31.758460479843432,53.970530986594035,1.5879230239921716,0.8477671182891204,A,1044.9323749926407,Correct,sub_003_day_02_data.csv,1,300,9.0,Training at home,,,,,,,,,,,,,
3,2,235,A,36.19927112435707,52.42516119917689,1.809963556217853,0.8234925064329739,A,1239.1182080027647,Correct,sub_003_day_02_data.csv,1,300,9.0,Training at home,,,,,,,,,,,,,
3,2,236,B,77.59068719645563,57.23990930997546,3.879534359822782,0.8991223929018245,B,1060.372208012268,Correct,sub_003_day_02_data.csv,1,300,9.0,Training at home,,,,,,,,,,,,,
3,2,237,B,40.21192639027837,18.28637860394302,2.010596319513918,0.2872417634145449,A,854.2916249716654,Incorrect,sub_003_day_02_data.csv,0,300,9.0,Training at home,,,,,,,,,,,,,
3,2,238,A,21.029912293962525,37.540221589808,1.0514956146981262,0.5896804218033688,A,558.9435000147205,Correct,sub_003_day_02_data.csv,1,300,9.0,Training at home,,,,,,,,,,,,,
3,2,239,B,33.47931398251889,17.55831284605166,1.6739656991259444,0.2758053332329359,A,878.0185419891495,Incorrect,sub_003_day_02_data.csv,0,300,9.0,Training at home,,,,,,,,,,,,,
3,2,240,A,44.2565001115547,75.57204500814468,2.212825005577735,1.1870829070717228,A,902.6532910065724,Correct,sub_003_day_02_data.csv,1,300,9.0,Training at home,,,,,,,,,,,,,
3,2,241,A,38.40370658054284,66.13134258564322,1.9201853290271416,1.0387887001954328,A,939.5791249989998,Correct,sub_003_day_02_data.csv,1,300,9.0,Training at home,,,,,,,,,,,,,
3,2,242,B,40.88141665054462,20.663718183808964,2.044070832527231,0.3245849262105203,A,1157.2343329899013,Incorrect,sub_003_day_02_data.csv,0,300,9.0,Training at home,,,,,,,,,,,,,
3,2,243,B,63.23986886465795,33.5077935380026,3.1619934432328978,0.5263391900849625,B,1427.0698329783045,Correct,sub_003_day_02_data.csv,1,300,9.0,Training at home,,,,,,,,,,,,,
3,2,244,B,38.83150317167588,23.594794559782382,1.941575158583794,0.3706261662598638,A,1340.3354579932056,Incorrect,sub_003_day_02_data.csv,0,300,9.0,Training at home,,,,,,,,,,,,,
3,2,245,A,62.48567526556651,88.03762888708455,3.1242837632783256,1.3828918407556468,A,997.454291995382,Correct,sub_003_day_02_data.csv,1,300,9.0,Training at home,,,,,,,,,,,,,
3,2,246,B,76.77789511392574,58.31790914210359,3.838894755696287,0.9160555746677485,B,1565.161917009391,Correct,sub_003_day_02_data.csv,1,300,9.0,Training at home,,,,,,,,,,,,,
3,2,247,A,14.057194274525536,31.85971014002364,0.7028597137262768,0.5004511566069926,A,786.250665987609,Correct,sub_003_day_02_data.csv,1,300,9.0,Training at home,,,,,,,,,,,,,
3,2,248,B,48.36525162461856,34.568863085707086,2.418262581230928,0.5430064315650438,A,931.440707994625,Incorrect,sub_003_day_02_data.csv,0,300,9.0,Training at home,,,,,,,,,,,,,
3,2,249,A,40.07614690353798,49.776199210212255,2.003807345176899,0.7818827088121245,A,1133.6426670022774,Correct,sub_003_day_02_data.csv,1,300,9.0,Training at home,,,,,,,,,,,,,
3,2,250,B,68.42135102544219,38.71981024014305,3.421067551272109,0.6082093569941213,B,563.5059580090456,Correct,sub_003_day_02_data.csv,1,300,10.0,Training at home,,,,,,,,,,,,,
3,2,251,A,51.414767359244834,80.5790133017964,2.5707383679622415,1.2657321811121889,A,867.7089999837335,Correct,sub_003_day_02_data.csv,1,300,10.0,Training at home,,,,,,,,,,,,,
3,2,252,B,66.37331400629962,54.35934244720953,3.318665700314981,0.8538745544306263,B,526.680832990678,Correct,sub_003_day_02_data.csv,1,300,10.0,Training at home,,,,,,,,,,,,,
3,2,253,A,25.04556154934773,51.90511358147828,1.2522780774673865,0.8153236175565799,A,941.0940409870818,Correct,sub_003_day_02_data.csv,1,300,10.0,Training at home,,,,,,,,,,,,,
3,2,254,A,42.48322052823408,58.17956868845699,2.124161026411704,0.9138825279033962,A,1083.7344999890774,Correct,sub_003_day_02_data.csv,1,300,10.0,Training at home,,,,,,,,,,,,,
3,2,255,A,38.31418084678121,61.755897256267374,1.9157090423390608,0.9700593656806782,A,692.7195419848431,Correct,sub_003_day_02_data.csv,1,300,10.0,Training at home,,,,,,,,,,,,,
3,2,256,A,55.95581740329165,65.88494204448271,2.797790870164582,1.034918249545681,B,1024.8481250018813,Incorrect,sub_003_day_02_data.csv,0,300,10.0,Training at home,,,,,,,,,,,,,
3,2,257,A,22.64589169809952,34.23943102095431,1.132294584904976,0.5378317247926225,A,1248.4527080086991,Correct,sub_003_day_02_data.csv,1,300,10.0,Training at home,,,,,,,,,,,,,
3,2,258,A,59.10757254396145,80.36701173703437,2.9553786271980726,1.2624020683201596,B,1630.4251669789664,Incorrect,sub_003_day_02_data.csv,0,300,10.0,Training at home,,,,,,,,,,,,,
3,2,259,B,32.50854049422381,18.694563153333743,1.6254270247111904,0.2936535113229185,A,826.3848329952452,Incorrect,sub_003_day_02_data.csv,0,300,10.0,Training at home,,,,,,,,,,,,,
3,2,260,A,24.616693382990043,35.783274740344574,1.230834669149502,0.5620823652282586,A,527.8418340021744,Correct,sub_003_day_02_data.csv,1,300,10.0,Training at home,,,,,,,,,,,,,
3,2,261,B,73.8183315014478,43.9498400631292,3.6909165750723902,0.6903624733438652,B,554.1832919989247,Correct,sub_003_day_02_data.csv,1,300,10.0,Training at home,,,,,,,,,,,,,
3,2,262,B,73.69202431324933,48.33186644092966,3.684601215662467,0.7591951827255384,B,483.3389170235023,Correct,sub_003_day_02_data.csv,1,300,10.0,Training at home,,,,,,,,,,,,,
3,2,263,B,47.06150916902392,26.355624101826933,2.3530754584511957,0.4139931752953679,A,473.043834004784,Incorrect,sub_003_day_02_data.csv,0,300,10.0,Training at home,,,,,,,,,,,,,
3,2,264,A,50.95700710995289,79.66542569619702,2.5478503554976446,1.2513815805613804,A,737.1788339805789,Correct,sub_003_day_02_data.csv,1,300,10.0,Training at home,,,,,,,,,,,,,
3,2,265,A,19.630356606360984,38.43838877342546,0.9815178303180492,0.603788798932109,A,586.159458005568,Correct,sub_003_day_02_data.csv,1,300,10.0,Training at home,,,,,,,,,,,,,
3,2,266,B,32.18802105599498,18.50949129930973,1.6094010527997489,0.2907464094379782,A,725.848792004399,Incorrect,sub_003_day_02_data.csv,0,300,10.0,Training at home,,,,,,,,,,,,,
3,2,267,B,42.79846993818895,29.0828260648884,2.139923496909448,0.4568319635554157,A,1841.2830419838428,Incorrect,sub_003_day_02_data.csv,0,300,10.0,Training at home,,,,,,,,,,,,,
3,2,268,B,77.756320397331,57.423087395053514,3.88781601986655,0.901999747533724,A,1415.1422499853652,Incorrect,sub_003_day_02_data.csv,0,300,10.0,Training at home,,,,,,,,,,,,,
3,2,269,B,30.294649206498857,12.616194388954902,1.5147324603249428,0.1981747180430074,A,636.6383749991655,Incorrect,sub_003_day_02_data.csv,0,300,10.0,Training at home,,,,,,,,,,,,,
3,2,270,B,79.4533699396915,65.93653805797092,3.9726684969845745,1.0357287178303265,B,830.1318339945283,Correct,sub_003_day_02_data.csv,1,300,10.0,Training at home,,,,,,,,,,,,,
3,2,271,A,60.16161339814349,80.89632668664586,3.0080806699071743,1.270716528105833,A,1647.9515410028398,Correct,sub_003_day_02_data.csv,1,300,10.0,Training at home,,,,,,,,,,,,,
3,2,272,B,41.995786709166055,32.27604710080481,2.099789335458303,0.5069909622940327,B,2190.5063340091147,Correct,sub_003_day_02_data.csv,1,300,10.0,Training at home,,,,,,,,,,,,,
3,2,273,B,48.94497157711291,42.06133799017629,2.4472485788556457,0.6606979521504756,A,1990.6742089951877,Incorrect,sub_003_day_02_data.csv,0,300,10.0,Training at home,,,,,,,,,,,,,
3,2,274,A,47.11792470768536,63.0398174100331,2.355896235384268,0.9902271362950098,B,1426.6635000240058,Incorrect,sub_003_day_02_data.csv,0,300,10.0,Training at home,,,,,,,,,,,,,
3,2,275,A,44.80758833389804,57.633781340597146,2.2403794166949016,0.9053093202911024,A,942.1431249938904,Correct,sub_003_day_02_data.csv,1,300,11.0,Training at home,,,,,,,,,,,,,
3,2,276,A,59.48226968741203,71.8925366318695,2.9741134843706014,1.1292853246530816,B,860.5389170115814,Incorrect,sub_003_day_02_data.csv,0,300,11.0,Training at home,,,,,,,,,,,,,
3,2,277,B,74.56902829487628,46.42265664580602,3.7284514147438137,0.7292053853929278,B,947.8854589979164,Correct,sub_003_day_02_data.csv,1,300,11.0,Training at home,,,,,,,,,,,,,
3,2,278,A,54.51737263545596,70.29477685701276,2.7258686317727983,1.1041877727986256,A,661.3443329988513,Correct,sub_003_day_02_data.csv,1,300,11.0,Training at home,,,,,,,,,,,,,
3,2,279,A,12.191097475979468,37.07938355090592,0.6095548737989734,0.5824415948158214,A,492.37854199600406,Correct,sub_003_day_02_data.csv,1,300,11.0,Training at home,,,,,,,,,,,,,
3,2,280,B,36.452401648197565,22.26229335239502,1.8226200824098784,0.3496952862397254,A,606.9992920092773,Incorrect,sub_003_day_02_data.csv,0,300,11.0,Training at home,,,,,,,,,,,,,
3,2,281,A,56.05490821838131,83.66804090857718,2.8027454109190653,1.3142545132931818,A,822.7944170066621,Correct,sub_003_day_02_data.csv,1,300,11.0,Training at home,,,,,,,,,,,,,
3,2,282,A,41.16175969350049,68.14962464138308,2.0580879846750246,1.0704918005913553,A,481.2877499789465,Correct,sub_003_day_02_data.csv,1,300,11.0,Training at home,,,,,,,,,,,,,
3,2,283,B,55.95293720718034,23.41140413849667,2.797646860359017,0.367745476258614,B,668.3705420000479,Correct,sub_003_day_02_data.csv,1,300,11.0,Training at home,,,,,,,,,,,,,
3,2,284,B,64.729590487276,40.37394978350855,3.2364795243638,0.6341925201813684,B,608.2647500152234,Correct,sub_003_day_02_data.csv,1,300,11.0,Training at home,,,,,,,,,,,,,
3,2,285,B,68.75657759005547,59.1279704600731,3.437828879502774,0.9287799880951998,B,570.2582499943674,Correct,sub_003_day_02_data.csv,1,300,11.0,Training at home,,,,,,,,,,,,,
3,2,286,A,33.6388156213193,52.43231453712986,1.6819407810659652,0.8236048708027824,A,563.2143750262912,Correct,sub_003_day_02_data.csv,1,300,11.0,Training at home,,,,,,,,,,,,,
3,2,287,B,57.067521863948265,32.997930878323544,2.8533760931974133,0.5183302861550252,B,516.9940830091946,Correct,sub_003_day_02_data.csv,1,300,11.0,Training at home,,,,,,,,,,,,,
3,2,288,B,60.88250875858132,53.43795051529948,3.044125437929066,0.8394013638087987,B,532.6112909824587,Correct,sub_003_day_02_data.csv,1,300,11.0,Training at home,,,,,,,,,,,,,
3,2,289,A,63.416942365136016,83.92391916257392,3.1708471182568005,1.3182738395080291,A,1277.9248750011902,Correct,sub_003_day_02_data.csv,1,300,11.0,Training at home,,,,,,,,,,,,,
3,2,290,A,24.365705343791447,53.697612483340855,1.2182852671895723,0.8434801244648757,A,491.1150409898255,Correct,sub_003_day_02_data.csv,1,300,11.0,Training at home,,,,,,,,,,,,,
3,2,291,A,13.801599680969414,40.57503281242735,0.6900799840484707,0.6373511250134329,A,489.2020420229528,Correct,sub_003_day_02_data.csv,1,300,11.0,Training at home,,,,,,,,,,,,,
3,2,292,B,61.12768087720444,32.4901246819377,3.056384043860222,0.5103536850749595,B,604.0227499906905,Correct,sub_003_day_02_data.csv,1,300,11.0,Training at home,,,,,,,,,,,,,
3,2,293,B,69.10195401694627,53.99724307087341,3.455097700847313,0.8481867107277912,B,662.9612919932697,Correct,sub_003_day_02_data.csv,1,300,11.0,Training at home,,,,,,,,,,,,,
3,2,294,A,55.056532165099085,81.78067158212934,2.7528266082549546,1.2846077852402853,A,881.3418329809792,Correct,sub_003_day_02_data.csv,1,300,11.0,Training at home,,,,,,,,,,,,,
3,2,295,A,64.07869358018108,80.69398172115463,3.203934679009054,1.267538100820442,B,1280.3022919979412,Incorrect,sub_003_day_02_data.csv,0,300,11.0,Training at home,,,,,,,,,,,,,
3,2,296,B,58.48982859132537,29.26776290753885,2.9244914295662685,0.4597369446866595,B,958.1795840058476,Correct,sub_003_day_02_data.csv,1,300,11.0,Training at home,,,,,,,,,,,,,
3,2,297,A,49.404612086894645,60.80513826779841,2.4702306043447324,0.9551248784131354,A,616.9707920053042,Correct,sub_003_day_02_data.csv,1,300,11.0,Training at home,,,,,,,,,,,,,
3,2,298,B,38.06188496279311,12.082233657358316,1.903094248139655,0.1897872824845611,A,619.5737919770181,Incorrect,sub_003_day_02_data.csv,0,300,11.0,Training at home,,,,,,,,,,,,,
3,2,299,B,67.83753101946421,35.80950814220974,3.3918765509732105,0.56249443854115,B,614.2880420084111,Correct,sub_003_day_02_data.csv,1,300,11.0,Training at home,,,,,,,,,,,,,
