subject,day,trial,cat,x,y,xt,yt,resp,rt,fb,f_name,acc,n_trials,block,session_type,ns_left_digit,ns_right_digit,ns_left_size,ns_right_size,ns_congruent,ns_cue,ns_correct_side,ns_resp,ns_rt,ns_fb,acc_stroop,acc_stroop_mean,resp_key
3,5,900,A,19.9397384023575,42.6748219538858,0.996986920117875,0.6703345357179001,A,708.2760000048438,Correct,sub_003_day_05_data.csv,1,300,36.0,Training at home,,,,,,,,,,,,,
3,5,901,A,46.60607467015839,70.66869802002321,2.3303037335079195,1.1100613126923025,B,703.1985000066925,Incorrect,sub_003_day_05_data.csv,0,300,36.0,Training at home,,,,,,,,,,,,,
3,5,902,B,38.2891086646212,27.890300711140437,1.91445543323106,0.4380998191026449,A,377.6350830012234,Incorrect,sub_003_day_05_data.csv,0,300,36.0,Training at home,,,,,,,,,,,,,
3,5,903,B,73.59943664528892,45.03998725461373,3.679971832264446,0.707486465384362,B,472.6604169991333,Correct,sub_003_day_05_data.csv,1,300,36.0,Training at home,,,,,,,,,,,,,
3,5,904,B,62.78735409626498,43.45432232646694,3.1393677048132487,0.6825788989377573,B,527.5410000031115,Correct,sub_003_day_05_data.csv,1,300,36.0,Training at home,,,,,,,,,,,,,
3,5,905,A,10.50653840420529,31.125090711432897,0.5253269202102645,0.4889117816067675,A,523.3155830064788,Correct,sub_003_day_05_data.csv,1,300,36.0,Training at home,,,,,,,,,,,,,
3,5,906,A,32.86196485834457,55.311603265867845,1.6430982429172287,0.8688326323916181,A,1153.244499990251,Correct,sub_003_day_05_data.csv,1,300,36.0,Training at home,,,,,,,,,,,,,
3,5,907,B,79.00267186690235,65.46705257781211,3.950133593345117,1.0283540571531564,B,559.5294999948237,Correct,sub_003_day_05_data.csv,1,300,36.0,Training at home,,,,,,,,,,,,,
3,5,908,A,23.70600084232673,37.563602130623664,1.1853000421163364,0.5900476824796861,A,562.6225830055773,Correct,sub_003_day_05_data.csv,1,300,36.0,Training at home,,,,,,,,,,,,,
3,5,909,B,59.97687381680194,47.360642999025615,2.9988436908400966,0.7439392405751387,B,445.3412919974653,Correct,sub_003_day_05_data.csv,1,300,36.0,Training at home,,,,,,,,,,,,,
3,5,910,A,47.6794222271338,67.69420989006097,2.38397111135669,1.0633381624059055,B,889.4458750000922,Incorrect,sub_003_day_05_data.csv,0,300,36.0,Training at home,,,,,,,,,,,,,
3,5,911,B,59.63181714544608,41.379034120327866,2.9815908572723036,0.649980348025317,B,554.283834004309,Correct,sub_003_day_05_data.csv,1,300,36.0,Training at home,,,,,,,,,,,,,
3,5,912,A,20.10556129293493,42.5768448294413,1.0052780646467463,0.6687955146460267,A,526.2070000026142,Correct,sub_003_day_05_data.csv,1,300,36.0,Training at home,,,,,,,,,,,,,
3,5,913,A,47.08416711551024,64.39723282296958,2.354208355775512,1.0115493677407636,B,671.7505830019945,Incorrect,sub_003_day_05_data.csv,0,300,36.0,Training at home,,,,,,,,,,,,,
3,5,914,B,67.54530400401407,36.60090963454376,3.377265200200703,0.5749257441129328,B,513.3988749876153,Correct,sub_003_day_05_data.csv,1,300,36.0,Training at home,,,,,,,,,,,,,
3,5,915,A,12.635164697471165,38.27594429911336,0.6317582348735583,0.6012371270965333,A,575.9491659991909,Correct,sub_003_day_05_data.csv,1,300,36.0,Training at home,,,,,,,,,,,,,
3,5,916,A,52.12773654483025,65.96774820478358,2.6063868272415123,1.036218965670047,B,509.1659589961637,Incorrect,sub_003_day_05_data.csv,0,300,36.0,Training at home,,,,,,,,,,,,,
3,5,917,A,32.84602892206594,63.76928117535559,1.6423014461032972,1.0016855263259952,A,505.2096660074312,Correct,sub_003_day_05_data.csv,1,300,36.0,Training at home,,,,,,,,,,,,,
3,5,918,B,81.69333481417482,60.57847797038097,4.084666740708741,0.951564506787,B,470.54366700467654,Correct,sub_003_day_05_data.csv,1,300,36.0,Training at home,,,,,,,,,,,,,
3,5,919,B,53.17164299693984,37.179639626934176,2.658582149846992,0.5840164135754619,B,517.9212500079302,Correct,sub_003_day_05_data.csv,1,300,36.0,Training at home,,,,,,,,,,,,,
3,5,920,A,58.475489919579495,67.24511754107985,2.9237744959789747,1.056283836284193,B,482.64883299998473,Incorrect,sub_003_day_05_data.csv,0,300,36.0,Training at home,,,,,,,,,,,,,
3,5,921,B,82.72225398085061,64.60886046568059,4.13611269904253,1.0148736069789508,B,469.4222500111209,Correct,sub_003_day_05_data.csv,1,300,36.0,Training at home,,,,,,,,,,,,,
3,5,922,A,21.059915630608888,44.22500330703679,1.0529957815304445,0.6946847274718554,A,475.4593340039719,Correct,sub_003_day_05_data.csv,1,300,36.0,Training at home,,,,,,,,,,,,,
3,5,923,A,37.88805366960491,60.87688200218662,1.8944026834802457,0.956251826357611,A,905.0459580030292,Correct,sub_003_day_05_data.csv,1,300,36.0,Training at home,,,,,,,,,,,,,
3,5,924,B,85.41116077898192,63.81031904347507,4.270558038949096,1.002330147651011,B,451.81795899407007,Correct,sub_003_day_05_data.csv,1,300,36.0,Training at home,,,,,,,,,,,,,
3,5,925,A,54.41439902202724,70.51919659627956,2.720719951101362,1.107712949819631,A,1151.0319579974748,Correct,sub_003_day_05_data.csv,1,300,37.0,Training at home,,,,,,,,,,,,,
3,5,926,A,27.26919967463137,54.81411789188179,1.3634599837315684,0.8610181504107033,A,553.281207990949,Correct,sub_003_day_05_data.csv,1,300,37.0,Training at home,,,,,,,,,,,,,
3,5,927,B,86.81291423749121,67.40081423637427,4.3406457118745605,1.0587295142548188,B,451.7635420052102,Correct,sub_003_day_05_data.csv,1,300,37.0,Training at home,,,,,,,,,,,,,
3,5,928,B,64.48243156462198,56.114380772161496,3.2241215782310984,0.8814426319728145,B,594.7365419997368,Correct,sub_003_day_05_data.csv,1,300,37.0,Training at home,,,,,,,,,,,,,
3,5,929,B,62.726070018750185,39.50124829835957,3.136303500937509,0.6204841573087637,B,702.5388329930138,Correct,sub_003_day_05_data.csv,1,300,37.0,Training at home,,,,,,,,,,,,,
3,5,930,A,45.994356666650816,69.16352907896504,2.299717833332541,1.086418174254103,A,2252.828208002029,Correct,sub_003_day_05_data.csv,1,300,37.0,Training at home,,,,,,,,,,,,,
3,5,931,B,56.26328881057502,36.89134033496509,2.8131644405287513,0.5794878188870358,B,670.7000829919707,Correct,sub_003_day_05_data.csv,1,300,37.0,Training at home,,,,,,,,,,,,,
3,5,932,A,37.06760581464181,67.64129823247913,1.8533802907320904,1.0625070280321631,A,547.7156669949181,Correct,sub_003_day_05_data.csv,1,300,37.0,Training at home,,,,,,,,,,,,,
3,5,933,A,29.884763054124775,51.17337117859921,1.494238152706239,0.8038294347705548,A,783.8407079980243,Correct,sub_003_day_05_data.csv,1,300,37.0,Training at home,,,,,,,,,,,,,
3,5,934,B,53.726132107317035,30.101813822352753,2.686306605365852,0.4728381858201555,B,390.749791986309,Correct,sub_003_day_05_data.csv,1,300,37.0,Training at home,,,,,,,,,,,,,
3,5,935,A,27.92106434541217,48.562676947834255,1.3960532172706084,0.7628207456898526,A,542.9761669947766,Correct,sub_003_day_05_data.csv,1,300,37.0,Training at home,,,,,,,,,,,,,
3,5,936,B,73.90879649491538,45.056102083674986,3.695439824745769,0.7077395965273255,B,425.9112920117332,Correct,sub_003_day_05_data.csv,1,300,37.0,Training at home,,,,,,,,,,,,,
3,5,937,A,36.205837796937466,60.56633772277947,1.8102918898468732,0.9513738082236118,A,473.3631250128383,Correct,sub_003_day_05_data.csv,1,300,37.0,Training at home,,,,,,,,,,,,,
3,5,938,B,88.10928138666176,69.63502486448607,4.405464069333089,1.0938244127340602,B,732.2782080009347,Correct,sub_003_day_05_data.csv,1,300,37.0,Training at home,,,,,,,,,,,,,
3,5,939,B,51.11773974113055,32.71077604814905,2.5558869870565273,0.51381966863043,A,622.2030830103904,Incorrect,sub_003_day_05_data.csv,0,300,37.0,Training at home,,,,,,,,,,,,,
3,5,940,B,54.212241746819714,47.61812922903072,2.710612087340986,0.7479838248180615,B,369.4474579970119,Correct,sub_003_day_05_data.csv,1,300,37.0,Training at home,,,,,,,,,,,,,
3,5,941,A,28.73280216192539,49.76257617181664,1.4366401080962696,0.7816687186254083,A,569.5784590061521,Correct,sub_003_day_05_data.csv,1,300,37.0,Training at home,,,,,,,,,,,,,
3,5,942,A,45.4637953423522,59.48629852420354,2.27318976711761,0.934408592164436,B,631.2555420008721,Incorrect,sub_003_day_05_data.csv,0,300,37.0,Training at home,,,,,,,,,,,,,
3,5,943,B,47.07851357383468,39.57798569242996,2.3539256786917337,0.6216895454760996,A,599.6693750057602,Incorrect,sub_003_day_05_data.csv,0,300,37.0,Training at home,,,,,,,,,,,,,
3,5,944,A,31.21360492347673,59.71163040019326,1.5606802461738365,0.9379480969955806,A,531.303083000239,Correct,sub_003_day_05_data.csv,1,300,37.0,Training at home,,,,,,,,,,,,,
3,5,945,A,52.6956006488187,67.51806313061118,2.634780032440935,1.0605712555787,B,703.9116249943618,Incorrect,sub_003_day_05_data.csv,0,300,37.0,Training at home,,,,,,,,,,,,,
3,5,946,B,70.09941348841456,46.71935120875052,3.5049706744207274,0.7338658526894601,B,431.3310419966001,Correct,sub_003_day_05_data.csv,1,300,37.0,Training at home,,,,,,,,,,,,,
3,5,947,B,55.986884979305515,27.523765303569856,2.7993442489652756,0.4323422943841234,B,639.2347919900203,Correct,sub_003_day_05_data.csv,1,300,37.0,Training at home,,,,,,,,,,,,,
3,5,948,A,47.32564244004169,70.3795792184293,2.3662821220020844,1.1055198451767918,A,822.8103329893202,Correct,sub_003_day_05_data.csv,1,300,37.0,Training at home,,,,,,,,,,,,,
3,5,949,A,57.74375985737939,77.59382426160964,2.887187992868969,1.2188409413210517,B,1147.34291700006,Incorrect,sub_003_day_05_data.csv,0,300,37.0,Training at home,,,,,,,,,,,,,
3,5,950,A,19.061128160007467,38.028286871402365,0.9530564080003734,0.5973469333190143,A,441.09783400199376,Correct,sub_003_day_05_data.csv,1,300,38.0,Training at home,,,,,,,,,,,,,
3,5,951,A,29.84990297516336,48.3458223132378,1.492495148758168,0.7594144010551267,A,621.0155000007944,Correct,sub_003_day_05_data.csv,1,300,38.0,Training at home,,,,,,,,,,,,,
3,5,952,B,53.31441676581328,36.31763275656396,2.665720838290664,0.5704760413189668,B,952.4974160012788,Correct,sub_003_day_05_data.csv,1,300,38.0,Training at home,,,,,,,,,,,,,
3,5,953,A,43.24264224496312,74.46369247621175,2.1621321122481563,1.1696729462121818,A,589.395290997345,Correct,sub_003_day_05_data.csv,1,300,38.0,Training at home,,,,,,,,,,,,,
3,5,954,B,49.86747573449616,40.13241118200502,2.493373786724808,0.6303984407011592,A,468.3366660028696,Incorrect,sub_003_day_05_data.csv,0,300,38.0,Training at home,,,,,,,,,,,,,
3,5,955,B,73.59594372662308,61.11614905315328,3.679797186331154,0.9600102244054256,B,564.2906249995576,Correct,sub_003_day_05_data.csv,1,300,38.0,Training at home,,,,,,,,,,,,,
3,5,956,B,55.279213254272904,36.083113596521,2.7639606627136453,0.5667922229673817,B,680.0427080015652,Correct,sub_003_day_05_data.csv,1,300,38.0,Training at home,,,,,,,,,,,,,
3,5,957,A,50.0169312161044,75.19629340752546,2.50084656080522,1.1811806147313229,A,629.703917002189,Correct,sub_003_day_05_data.csv,1,300,38.0,Training at home,,,,,,,,,,,,,
3,5,958,B,86.55012226960261,60.24940290840303,4.327506113480131,0.9463954078010522,B,466.5789999999106,Correct,sub_003_day_05_data.csv,1,300,38.0,Training at home,,,,,,,,,,,,,
3,5,959,A,68.18682168084433,86.07234103278762,3.4093410840422167,1.3520211713294046,B,490.82791700493544,Incorrect,sub_003_day_05_data.csv,0,300,38.0,Training at home,,,,,,,,,,,,,
3,5,960,B,68.37591079091224,51.83869790114693,3.4187955395456124,0.8142803624895191,B,859.64954199153,Correct,sub_003_day_05_data.csv,1,300,38.0,Training at home,,,,,,,,,,,,,
3,5,961,A,19.126980624797447,35.733980985401885,0.9563490312398724,0.5613080607362796,A,454.7225420101313,Correct,sub_003_day_05_data.csv,1,300,38.0,Training at home,,,,,,,,,,,,,
3,5,962,A,54.46297819702171,68.97017291095878,2.7231489098510853,1.0833809426694294,B,881.366750007146,Incorrect,sub_003_day_05_data.csv,0,300,38.0,Training at home,,,,,,,,,,,,,
3,5,963,A,56.95658483346196,71.65451891677155,2.8478292416730984,1.1255465511272016,A,875.59408400557,Correct,sub_003_day_05_data.csv,1,300,38.0,Training at home,,,,,,,,,,,,,
3,5,964,B,71.71191592395928,50.414600784669815,3.585595796197964,0.7919106972939045,B,485.3824169986183,Correct,sub_003_day_05_data.csv,1,300,38.0,Training at home,,,,,,,,,,,,,
3,5,965,A,25.47708665373416,36.54469399232927,1.273854332686708,0.5740427108699435,A,436.3934590073768,Correct,sub_003_day_05_data.csv,1,300,38.0,Training at home,,,,,,,,,,,,,
3,5,966,A,32.792518853056364,41.55119433720492,1.6396259426528184,0.6526846343882239,A,527.4716669955524,Correct,sub_003_day_05_data.csv,1,300,38.0,Training at home,,,,,,,,,,,,,
3,5,967,B,62.03870902366137,51.94798645402709,3.1019354511830683,0.815997063063768,B,557.9028750071302,Correct,sub_003_day_05_data.csv,1,300,38.0,Training at home,,,,,,,,,,,,,
3,5,968,B,40.06763853909602,20.53420922919878,2.0033819269548014,0.322550604308633,B,632.0834170037415,Correct,sub_003_day_05_data.csv,1,300,38.0,Training at home,,,,,,,,,,,,,
3,5,969,A,56.20558168049578,75.80958624983504,2.8102790840247893,1.1908141961708176,B,896.2987919949228,Incorrect,sub_003_day_05_data.csv,0,300,38.0,Training at home,,,,,,,,,,,,,
3,5,970,B,45.74799205516854,24.09978962406511,2.287399602758427,0.3785586101801123,B,845.1791659899754,Correct,sub_003_day_05_data.csv,1,300,38.0,Training at home,,,,,,,,,,,,,
3,5,971,B,33.707289274879265,19.896142301769867,1.685364463743963,0.3125278724500867,A,574.2660830001114,Incorrect,sub_003_day_05_data.csv,0,300,38.0,Training at home,,,,,,,,,,,,,
3,5,972,B,73.97003746997414,55.22647187511305,3.6985018734987074,0.8674953916326924,B,443.62104100582656,Correct,sub_003_day_05_data.csv,1,300,38.0,Training at home,,,,,,,,,,,,,
3,5,973,A,38.67821362633084,49.674271253104344,1.933910681316542,0.7802816282058964,A,1769.1512080054963,Correct,sub_003_day_05_data.csv,1,300,38.0,Training at home,,,,,,,,,,,,,
3,5,974,A,21.16743304599799,42.339185330752414,1.0583716522998996,0.6650623679703426,A,517.2749999910593,Correct,sub_003_day_05_data.csv,1,300,38.0,Training at home,,,,,,,,,,,,,
3,5,975,A,21.942928884853,49.16350316667083,1.09714644424265,0.7722585018657581,A,526.3435420056339,Correct,sub_003_day_05_data.csv,1,300,39.0,Training at home,,,,,,,,,,,,,
3,5,976,B,47.4172834591282,40.157062364989386,2.37086417295641,0.6307856605779891,B,514.517750008963,Correct,sub_003_day_05_data.csv,1,300,39.0,Training at home,,,,,,,,,,,,,
3,5,977,B,78.53863185479577,63.321474567190435,3.926931592739789,0.994651396573792,B,465.3357089991914,Correct,sub_003_day_05_data.csv,1,300,39.0,Training at home,,,,,,,,,,,,,
3,5,978,B,61.08946193215546,53.9324906905925,3.054473096607773,0.8471695827168266,B,483.3977920061443,Correct,sub_003_day_05_data.csv,1,300,39.0,Training at home,,,,,,,,,,,,,
3,5,979,B,43.80300828902729,27.281326834501137,2.1901504144513644,0.4285340798172543,B,543.6594170023454,Correct,sub_003_day_05_data.csv,1,300,39.0,Training at home,,,,,,,,,,,,,
3,5,980,A,40.4562177310758,68.42006405963531,2.02281088655379,1.0747398530394667,A,828.67245801026,Correct,sub_003_day_05_data.csv,1,300,39.0,Training at home,,,,,,,,,,,,,
3,5,981,A,37.98944355698233,67.81857569419014,1.8994721778491168,1.0652916958889551,A,893.4786250028992,Correct,sub_003_day_05_data.csv,1,300,39.0,Training at home,,,,,,,,,,,,,
3,5,982,A,45.82433126762545,72.59033509962495,2.2912165633812727,1.1402463173530153,B,1044.3625839980086,Incorrect,sub_003_day_05_data.csv,0,300,39.0,Training at home,,,,,,,,,,,,,
3,5,983,B,54.68724903360845,25.758471370506903,2.734362451680423,0.4046131221264374,B,1118.0261250119656,Correct,sub_003_day_05_data.csv,1,300,39.0,Training at home,,,,,,,,,,,,,
3,5,984,B,71.70651155318804,56.96055947465501,3.5853255776594017,0.8947343759497034,B,589.4433339999523,Correct,sub_003_day_05_data.csv,1,300,39.0,Training at home,,,,,,,,,,,,,
3,5,985,B,75.15600904600963,44.453855879424125,3.757800452300481,0.6982795352726914,B,479.68529199715704,Correct,sub_003_day_05_data.csv,1,300,39.0,Training at home,,,,,,,,,,,,,
3,5,986,A,62.723224264751536,86.02697760281488,3.136161213237577,1.3513086042376845,B,483.5837090067798,Incorrect,sub_003_day_05_data.csv,0,300,39.0,Training at home,,,,,,,,,,,,,
3,5,987,A,39.26162302762928,65.28271481369258,1.9630811513814643,1.0254584863254708,A,467.71679099765606,Correct,sub_003_day_05_data.csv,1,300,39.0,Training at home,,,,,,,,,,,,,
3,5,988,B,66.64262267909567,43.742076920557686,3.332131133954783,0.6870989375319183,B,473.2539160031593,Correct,sub_003_day_05_data.csv,1,300,39.0,Training at home,,,,,,,,,,,,,
3,5,989,A,18.58462209485504,48.07185389507416,0.929231104742752,0.7551109152060342,A,459.25312499457505,Correct,sub_003_day_05_data.csv,1,300,39.0,Training at home,,,,,,,,,,,,,
3,5,990,A,29.128072711494852,44.06313164899774,1.4564036355747425,0.6921420534132561,A,523.9242499956163,Correct,sub_003_day_05_data.csv,1,300,39.0,Training at home,,,,,,,,,,,,,
3,5,991,B,53.87638568071861,39.40891094959339,2.6938192840359307,0.6190337256260847,B,524.2213750025257,Correct,sub_003_day_05_data.csv,1,300,39.0,Training at home,,,,,,,,,,,,,
3,5,992,B,55.254084939823485,25.06084111168999,2.7627042469911745,0.3936547716463316,B,685.6145840138197,Correct,sub_003_day_05_data.csv,1,300,39.0,Training at home,,,,,,,,,,,,,
3,5,993,A,57.24456800898708,68.14477655890265,2.862228400449354,1.0704156470898325,A,586.8131669994909,Correct,sub_003_day_05_data.csv,1,300,39.0,Training at home,,,,,,,,,,,,,
3,5,994,A,55.91966654123613,75.08823365771113,2.795983327061806,1.1794832161504956,A,989.2933329974768,Correct,sub_003_day_05_data.csv,1,300,39.0,Training at home,,,,,,,,,,,,,
3,5,995,A,31.593622905833342,59.63215005400944,1.579681145291667,0.9366996226372012,A,546.952542004874,Correct,sub_003_day_05_data.csv,1,300,39.0,Training at home,,,,,,,,,,,,,
3,5,996,A,66.54962270330311,82.96200588993574,3.3274811351651556,1.3031641411544763,A,1029.1468340001302,Correct,sub_003_day_05_data.csv,1,300,39.0,Training at home,,,,,,,,,,,,,
3,5,997,A,48.6251141683184,79.66291079453788,2.4312557084159203,1.251342076578496,A,757.7141669898992,Correct,sub_003_day_05_data.csv,1,300,39.0,Training at home,,,,,,,,,,,,,
3,5,998,B,73.79039076522106,61.370038457468326,3.689519538261053,0.963998309842528,B,459.58675000292715,Correct,sub_003_day_05_data.csv,1,300,39.0,Training at home,,,,,,,,,,,,,
3,5,999,B,79.07118957629507,50.84445470517707,3.9535594788147534,0.7986628268878164,B,571.4429579966236,Correct,sub_003_day_05_data.csv,1,300,39.0,Training at home,,,,,,,,,,,,,
3,5,1000,B,46.65002406517281,19.26552469150463,2.3325012032586403,0.3026221541919187,B,997.9118750052294,Correct,sub_003_day_05_data.csv,1,300,40.0,Training at home,,,,,,,,,,,,,
3,5,1001,A,36.41231761480979,61.74240069778911,1.8206158807404893,0.969847362235858,A,618.7682919990038,Correct,sub_003_day_05_data.csv,1,300,40.0,Training at home,,,,,,,,,,,,,
3,5,1002,B,40.11315477864578,13.053795453575056,2.005657738932289,0.2050485394920762,B,1511.530749994563,Correct,sub_003_day_05_data.csv,1,300,40.0,Training at home,,,,,,,,,,,,,
3,5,1003,A,39.124266720326666,62.01268651350914,1.9562133360163332,0.9740930019010358,A,610.6719999952475,Correct,sub_003_day_05_data.csv,1,300,40.0,Training at home,,,,,,,,,,,,,
3,5,1004,A,21.072017630452624,35.851435148472426,1.0536008815226312,0.5631530264154593,A,471.699792004074,Correct,sub_003_day_05_data.csv,1,300,40.0,Training at home,,,,,,,,,,,,,
3,5,1005,A,45.66087079224408,71.47112071080227,2.283043539612204,1.1226657388444286,A,514.9775419995422,Correct,sub_003_day_05_data.csv,1,300,40.0,Training at home,,,,,,,,,,,,,
3,5,1006,B,48.280857745125104,18.883739817529893,2.4140428872562554,0.2966250914152649,B,693.813667006907,Correct,sub_003_day_05_data.csv,1,300,40.0,Training at home,,,,,,,,,,,,,
3,5,1007,A,33.253565946369804,51.058906658863194,1.6626782973184902,0.8020314302990579,A,594.1373750101775,Correct,sub_003_day_05_data.csv,1,300,40.0,Training at home,,,,,,,,,,,,,
3,5,1008,A,56.54319222637079,80.39642245939066,2.82715961131854,1.2628640508666158,A,708.0361249973066,Correct,sub_003_day_05_data.csv,1,300,40.0,Training at home,,,,,,,,,,,,,
3,5,1009,B,76.90441671172238,61.86592938618875,3.845220835586119,0.9717877463357774,B,440.5280420032795,Correct,sub_003_day_05_data.csv,1,300,40.0,Training at home,,,,,,,,,,,,,
3,5,1010,A,32.51241715971533,60.451517148888215,1.6256208579857667,0.949570210866523,A,493.13829200400505,Correct,sub_003_day_05_data.csv,1,300,40.0,Training at home,,,,,,,,,,,,,
3,5,1011,B,43.731569726821945,31.45415913036348,2.186578486341097,0.4940807762439712,B,850.2807089971611,Correct,sub_003_day_05_data.csv,1,300,40.0,Training at home,,,,,,,,,,,,,
3,5,1012,B,33.17326922472413,14.619888343372502,1.6586634612362063,0.2296486690792105,A,677.5878749904223,Incorrect,sub_003_day_05_data.csv,0,300,40.0,Training at home,,,,,,,,,,,,,
3,5,1013,A,49.04716026190293,55.79550278664252,2.452358013095146,0.8764337082893249,B,755.8667499979492,Incorrect,sub_003_day_05_data.csv,0,300,40.0,Training at home,,,,,,,,,,,,,
3,5,1014,A,52.0991275965823,64.5800005250138,2.604956379829115,1.0144202760910417,A,736.2956670112908,Correct,sub_003_day_05_data.csv,1,300,40.0,Training at home,,,,,,,,,,,,,
3,5,1015,B,78.96830799452691,60.83566433474955,3.9484153997263456,0.955604380751519,B,606.8057919910643,Correct,sub_003_day_05_data.csv,1,300,40.0,Training at home,,,,,,,,,,,,,
3,5,1016,A,59.81746771443666,68.48331107030788,2.990873385721833,1.075733334759919,B,415.6886669952655,Incorrect,sub_003_day_05_data.csv,0,300,40.0,Training at home,,,,,,,,,,,,,
3,5,1017,A,33.063653883824294,66.29271074449528,1.6531826941912149,1.0413234653072976,A,483.2306669995887,Correct,sub_003_day_05_data.csv,1,300,40.0,Training at home,,,,,,,,,,,,,
3,5,1018,B,37.12153228435509,23.242616169111137,1.8560766142177545,0.3650941610354344,B,881.0540830017999,Correct,sub_003_day_05_data.csv,1,300,40.0,Training at home,,,,,,,,,,,,,
3,5,1019,A,39.75044752681068,67.83633861831603,1.987522376340534,1.0655707152486562,A,776.3908749911934,Correct,sub_003_day_05_data.csv,1,300,40.0,Training at home,,,,,,,,,,,,,
3,5,1020,B,77.05207813428382,65.40588813493184,3.852603906714191,1.0273932883310886,B,511.9007080065785,Correct,sub_003_day_05_data.csv,1,300,40.0,Training at home,,,,,,,,,,,,,
3,5,1021,B,74.07829155799145,56.35110063724291,3.703914577899573,0.8851610189183071,B,461.693874996854,Correct,sub_003_day_05_data.csv,1,300,40.0,Training at home,,,,,,,,,,,,,
3,5,1022,A,30.4737602160192,50.41386486983277,1.52368801080096,0.7918991375706759,A,540.6963749992428,Correct,sub_003_day_05_data.csv,1,300,40.0,Training at home,,,,,,,,,,,,,
3,5,1023,B,39.12047565268538,20.378805034131044,1.9560237826342688,0.3201095209208239,A,1506.4198750042124,Incorrect,sub_003_day_05_data.csv,0,300,40.0,Training at home,,,,,,,,,,,,,
3,5,1024,A,49.8793566754401,65.7019001791122,2.4939678337720053,1.032043034647944,B,811.6882089962019,Incorrect,sub_003_day_05_data.csv,0,300,40.0,Training at home,,,,,,,,,,,,,
3,5,1025,A,23.080652497683815,39.08886002163334,1.1540326248841908,0.6140063774058153,A,531.6172919992823,Correct,sub_003_day_05_data.csv,1,300,41.0,Training at home,,,,,,,,,,,,,
3,5,1026,B,42.18000049681038,33.86133259631459,2.109000024840519,0.5318925686267126,B,665.0404170068214,Correct,sub_003_day_05_data.csv,1,300,41.0,Training at home,,,,,,,,,,,,,
3,5,1027,A,21.898907955117917,37.312659163390094,1.0949453977558958,0.586105879568031,A,530.0660409993725,Correct,sub_003_day_05_data.csv,1,300,41.0,Training at home,,,,,,,,,,,,,
3,5,1028,A,38.66006848897744,67.89440417194068,1.9330034244488723,1.0664828068321253,A,849.4990420003887,Correct,sub_003_day_05_data.csv,1,300,41.0,Training at home,,,,,,,,,,,,,
3,5,1029,B,77.30391277424823,52.78377531027279,3.865195638712412,0.8291256037174364,B,440.00220799352974,Correct,sub_003_day_05_data.csv,1,300,41.0,Training at home,,,,,,,,,,,,,
3,5,1030,B,47.246794131076,19.778194163643924,2.3623397065538,0.3106751474288813,B,632.694083993556,Correct,sub_003_day_05_data.csv,1,300,41.0,Training at home,,,,,,,,,,,,,
3,5,1031,A,40.62807709389492,67.44172290186563,2.031403854694746,1.059372106069698,B,777.5697089964524,Incorrect,sub_003_day_05_data.csv,0,300,41.0,Training at home,,,,,,,,,,,,,
3,5,1032,A,38.34257344894991,70.63364940661393,1.9171286724474956,1.109510770360277,A,541.6622500051744,Correct,sub_003_day_05_data.csv,1,300,41.0,Training at home,,,,,,,,,,,,,
3,5,1033,A,52.537973793957875,70.67403410597052,2.6268986896978936,1.1101451317343574,B,486.22966700349934,Incorrect,sub_003_day_05_data.csv,0,300,41.0,Training at home,,,,,,,,,,,,,
3,5,1034,A,47.00937776854876,75.43228950374643,2.3504688884274376,1.1848876327421414,B,626.2662499939324,Incorrect,sub_003_day_05_data.csv,0,300,41.0,Training at home,,,,,,,,,,,,,
3,5,1035,B,41.50012024419364,33.49158940290015,2.075006012209682,0.5260846561259844,B,504.6442499879049,Correct,sub_003_day_05_data.csv,1,300,41.0,Training at home,,,,,,,,,,,,,
3,5,1036,B,50.44319144201799,21.567685367935496,2.5221595721008994,0.3387844095342111,B,531.9602090021363,Correct,sub_003_day_05_data.csv,1,300,41.0,Training at home,,,,,,,,,,,,,
3,5,1037,B,48.99234948078746,30.0213313496578,2.449617474039373,0.4715739700953494,B,398.8377500063507,Correct,sub_003_day_05_data.csv,1,300,41.0,Training at home,,,,,,,,,,,,,
3,5,1038,A,52.68584492357367,60.366354627500414,2.634292246178683,0.9482324811087576,B,515.672417008318,Incorrect,sub_003_day_05_data.csv,0,300,41.0,Training at home,,,,,,,,,,,,,
3,5,1039,A,43.94082426625366,57.75353953311961,2.1970412133126827,0.9071904775802812,B,660.8994999987772,Incorrect,sub_003_day_05_data.csv,0,300,41.0,Training at home,,,,,,,,,,,,,
3,5,1040,B,77.95841039574414,63.49232040163149,3.897920519787206,0.997335036665674,B,465.5612079950515,Correct,sub_003_day_05_data.csv,1,300,41.0,Training at home,,,,,,,,,,,,,
3,5,1041,A,21.94373544499023,50.63528528905128,1.0971867722495117,0.7953772013825342,A,536.2357920093928,Correct,sub_003_day_05_data.csv,1,300,41.0,Training at home,,,,,,,,,,,,,
3,5,1042,B,60.02503204814201,43.87845091423191,3.0012516024071005,0.6892410952152564,B,439.89083300402854,Correct,sub_003_day_05_data.csv,1,300,41.0,Training at home,,,,,,,,,,,,,
3,5,1043,A,46.66614372500947,71.91750257940285,2.3333071862504737,1.129677488839885,A,681.1967910034582,Correct,sub_003_day_05_data.csv,1,300,41.0,Training at home,,,,,,,,,,,,,
3,5,1044,A,15.35174187080273,43.57063492772527,0.7675870935401364,0.6844059330059229,A,444.0870410035131,Correct,sub_003_day_05_data.csv,1,300,41.0,Training at home,,,,,,,,,,,,,
3,5,1045,A,31.67630164039303,47.46970433490688,1.5838150820196517,0.7456523720331152,A,809.7098330035806,Correct,sub_003_day_05_data.csv,1,300,41.0,Training at home,,,,,,,,,,,,,
3,5,1046,B,65.85744088518454,56.87096997383116,3.292872044259227,0.8933271073615684,B,445.66158299858216,Correct,sub_003_day_05_data.csv,1,300,41.0,Training at home,,,,,,,,,,,,,
3,5,1047,A,45.18458083914541,57.03656698869607,2.2592290419572705,0.8959282991883484,B,468.4872920042835,Incorrect,sub_003_day_05_data.csv,0,300,41.0,Training at home,,,,,,,,,,,,,
3,5,1048,B,46.46850979142546,35.198933962811324,2.3234254895712727,0.5529035617588016,B,398.1411660060985,Correct,sub_003_day_05_data.csv,1,300,41.0,Training at home,,,,,,,,,,,,,
3,5,1049,B,43.4240089827517,15.66975859619678,2.171200449137585,0.2461399924466865,B,454.36383300693706,Correct,sub_003_day_05_data.csv,1,300,41.0,Training at home,,,,,,,,,,,,,
3,5,1050,B,35.20120202630484,19.77479485134803,1.760060101315242,0.3106217511562012,B,592.5715409975965,Correct,sub_003_day_05_data.csv,1,300,42.0,Training at home,,,,,,,,,,,,,
3,5,1051,A,42.429345444351675,54.9416615556125,2.1214672722175836,0.8630216015956449,A,578.5599579976406,Correct,sub_003_day_05_data.csv,1,300,42.0,Training at home,,,,,,,,,,,,,
3,5,1052,A,10.605932651938303,32.68943916366287,0.5302966325969152,0.5134845096326687,A,460.75287500570994,Correct,sub_003_day_05_data.csv,1,300,42.0,Training at home,,,,,,,,,,,,,
3,5,1053,A,40.472578050639584,63.06678886407465,2.0236289025319794,0.9906508029043776,B,562.6067089906428,Incorrect,sub_003_day_05_data.csv,0,300,42.0,Training at home,,,,,,,,,,,,,
3,5,1054,B,65.51701004856585,46.86994009657285,3.2758505024282925,0.7362312974079348,B,465.8885829994688,Correct,sub_003_day_05_data.csv,1,300,42.0,Training at home,,,,,,,,,,,,,
3,5,1055,B,51.37260115466096,37.299339130402714,2.568630057733048,0.5858966489791374,B,537.4432499957038,Correct,sub_003_day_05_data.csv,1,300,42.0,Training at home,,,,,,,,,,,,,
3,5,1056,B,53.79755613215707,46.17748773592401,2.6898778066078535,0.7253542811620582,B,484.8225000023376,Correct,sub_003_day_05_data.csv,1,300,42.0,Training at home,,,,,,,,,,,,,
3,5,1057,B,65.44780049943999,43.31873196000807,3.2723900249719997,0.6804490504419337,B,398.0968329997267,Correct,sub_003_day_05_data.csv,1,300,42.0,Training at home,,,,,,,,,,,,,
3,5,1058,B,43.138921951293,30.126417526403387,2.15694609756465,0.4732246598996383,B,487.3669999942649,Correct,sub_003_day_05_data.csv,1,300,42.0,Training at home,,,,,,,,,,,,,
3,5,1059,B,32.765081752697796,18.92654119576112,1.63825408763489,0.2972974138923386,A,721.8518750014482,Incorrect,sub_003_day_05_data.csv,0,300,42.0,Training at home,,,,,,,,,,,,,
3,5,1060,B,46.45185206958327,22.246221809707983,2.3225926034791633,0.3494428350375382,B,428.7750420044176,Correct,sub_003_day_05_data.csv,1,300,42.0,Training at home,,,,,,,,,,,,,
3,5,1061,A,31.002462139360293,43.0729314738749,1.5501231069680148,0.6765880254345099,A,635.9660000016447,Correct,sub_003_day_05_data.csv,1,300,42.0,Training at home,,,,,,,,,,,,,
3,5,1062,A,58.1455142236426,73.3191265137153,2.90727571118213,1.151694146115543,B,1145.3342919994611,Incorrect,sub_003_day_05_data.csv,0,300,42.0,Training at home,,,,,,,,,,,,,
3,5,1063,A,40.09622104706214,58.366001424087145,2.004811052353107,0.9168110064666178,A,507.07333399623167,Correct,sub_003_day_05_data.csv,1,300,42.0,Training at home,,,,,,,,,,,,,
3,5,1064,B,53.012422770907094,30.31340779665917,2.650621138545355,0.4761618961962801,B,570.8808749914169,Correct,sub_003_day_05_data.csv,1,300,42.0,Training at home,,,,,,,,,,,,,
3,5,1065,B,59.79275661227021,49.98337747557109,2.98963783061351,0.7851370573942984,B,483.19075000472367,Correct,sub_003_day_05_data.csv,1,300,42.0,Training at home,,,,,,,,,,,,,
3,5,1066,B,88.39761569918784,66.62626041546967,4.419880784959392,1.0465628512869998,B,465.5202919966541,Correct,sub_003_day_05_data.csv,1,300,42.0,Training at home,,,,,,,,,,,,,
3,5,1067,B,30.768410432317445,11.588848883289522,1.5384205216158722,0.1820372125765232,A,512.3902920022374,Incorrect,sub_003_day_05_data.csv,0,300,42.0,Training at home,,,,,,,,,,,,,
3,5,1068,B,76.97655556676658,55.312798447637675,3.848827778338329,0.8688514062629571,B,423.48470899742097,Correct,sub_003_day_05_data.csv,1,300,42.0,Training at home,,,,,,,,,,,,,
3,5,1069,A,33.794413468540924,63.39971202425178,1.6897206734270462,0.9958803476754892,A,951.052290998632,Correct,sub_003_day_05_data.csv,1,300,42.0,Training at home,,,,,,,,,,,,,
3,5,1070,B,80.8037544936701,64.2221881177826,4.040187724683505,1.0087997719414372,B,506.21841600514017,Correct,sub_003_day_05_data.csv,1,300,42.0,Training at home,,,,,,,,,,,,,
3,5,1071,A,54.26855157273785,73.73672320576442,2.7134275786368924,1.1582537396150674,B,656.1070410098182,Incorrect,sub_003_day_05_data.csv,0,300,42.0,Training at home,,,,,,,,,,,,,
3,5,1072,B,37.209556571906965,24.49061938909976,1.8604778285953485,0.3846977497732977,B,813.1168330000946,Correct,sub_003_day_05_data.csv,1,300,42.0,Training at home,,,,,,,,,,,,,
3,5,1073,A,47.68300116146563,74.07536745841551,2.3841500580732817,1.163573151096613,B,1514.1037919966038,Incorrect,sub_003_day_05_data.csv,0,300,42.0,Training at home,,,,,,,,,,,,,
3,5,1074,A,32.79278216822151,56.43550204351568,1.6396391084110753,0.8864867931078032,A,803.5757079924224,Correct,sub_003_day_05_data.csv,1,300,42.0,Training at home,,,,,,,,,,,,,
3,5,1075,B,68.96597106926296,54.62724628647884,3.4482985534631485,0.8580827780972111,B,476.6629169898806,Correct,sub_003_day_05_data.csv,1,300,43.0,Training at home,,,,,,,,,,,,,
3,5,1076,A,47.35237458284988,70.3370201892593,2.367618729142494,1.10485132950987,B,1243.291582999518,Incorrect,sub_003_day_05_data.csv,0,300,43.0,Training at home,,,,,,,,,,,,,
3,5,1077,B,56.639261204689205,39.482294058880285,2.83196306023446,0.6201864248112512,B,456.24666700314265,Correct,sub_003_day_05_data.csv,1,300,43.0,Training at home,,,,,,,,,,,,,
3,5,1078,A,14.877813609029594,36.11919911173311,0.7438906804514798,0.5673590529148385,A,509.581625010469,Correct,sub_003_day_05_data.csv,1,300,43.0,Training at home,,,,,,,,,,,,,
3,5,1079,B,42.036096389405614,21.254010497716187,2.1018048194702805,0.3338572161947276,B,674.5613749953918,Correct,sub_003_day_05_data.csv,1,300,43.0,Training at home,,,,,,,,,,,,,
3,5,1080,A,63.15352277736745,81.32786993901391,3.1576761388683723,1.2774951936625614,B,485.6682920071762,Incorrect,sub_003_day_05_data.csv,0,300,43.0,Training at home,,,,,,,,,,,,,
3,5,1081,A,56.90967219058248,78.22638265845076,2.845483609529124,1.2287771453834646,B,1111.3500409992412,Incorrect,sub_003_day_05_data.csv,0,300,43.0,Training at home,,,,,,,,,,,,,
3,5,1082,A,28.21977082317601,60.85242379610124,1.4109885411588003,0.955867637754822,A,589.516125008231,Correct,sub_003_day_05_data.csv,1,300,43.0,Training at home,,,,,,,,,,,,,
3,5,1083,A,30.564256790735847,61.2088387919071,1.5282128395367922,0.9614661914170864,A,595.988542001578,Correct,sub_003_day_05_data.csv,1,300,43.0,Training at home,,,,,,,,,,,,,
3,5,1084,A,64.75948379950664,76.15753715480778,3.2379741899753323,1.1962797962051792,A,409.1008329996839,Correct,sub_003_day_05_data.csv,1,300,43.0,Training at home,,,,,,,,,,,,,
3,5,1085,A,48.0341605433202,67.38962427331886,2.4017080271660096,1.0585537427261746,B,1677.8718339919578,Incorrect,sub_003_day_05_data.csv,0,300,43.0,Training at home,,,,,,,,,,,,,
3,5,1086,A,28.140965640671247,51.79570616975185,1.4070482820335624,0.8136050499519397,B,536.2272920028772,Incorrect,sub_003_day_05_data.csv,0,300,43.0,Training at home,,,,,,,,,,,,,
3,5,1087,B,57.32705177371703,30.746599957077,2.866352588685851,0.4829664627400868,B,531.4333749993239,Correct,sub_003_day_05_data.csv,1,300,43.0,Training at home,,,,,,,,,,,,,
3,5,1088,B,38.63426098340522,25.995912834818917,1.931713049170261,0.4083428439261385,B,871.6619169863407,Correct,sub_003_day_05_data.csv,1,300,43.0,Training at home,,,,,,,,,,,,,
3,5,1089,A,26.415756235328175,42.896772923006274,1.3207878117664087,0.6738209333881304,A,707.8753329988103,Correct,sub_003_day_05_data.csv,1,300,43.0,Training at home,,,,,,,,,,,,,
3,5,1090,A,32.236147848680346,47.556412212295555,1.6118073924340173,0.7470143761861782,A,877.4258750054287,Correct,sub_003_day_05_data.csv,1,300,43.0,Training at home,,,,,,,,,,,,,
3,5,1091,B,30.72183360755102,16.461226351045173,1.536091680377551,0.2585723388676112,B,651.9330829905812,Correct,sub_003_day_05_data.csv,1,300,43.0,Training at home,,,,,,,,,,,,,
3,5,1092,A,22.909169187566015,43.85570473422682,1.145458459378301,0.6888837990552504,A,625.5124579911353,Correct,sub_003_day_05_data.csv,1,300,43.0,Training at home,,,,,,,,,,,,,
3,5,1093,A,30.4556501833774,56.038931101098214,1.52278250916887,0.8802574713111735,B,839.578667000751,Incorrect,sub_003_day_05_data.csv,0,300,43.0,Training at home,,,,,,,,,,,,,
3,5,1094,B,51.74956197393436,25.91482890051945,2.5874780986967183,0.4070691804645417,B,570.8076669980073,Correct,sub_003_day_05_data.csv,1,300,43.0,Training at home,,,,,,,,,,,,,
3,5,1095,A,56.976663361582126,74.04301370579019,2.8488331680791066,1.163064939538794,A,1047.6248749910155,Correct,sub_003_day_05_data.csv,1,300,43.0,Training at home,,,,,,,,,,,,,
3,5,1096,B,70.95910464115187,53.12330194861726,3.547955232057593,0.8344588756810418,B,506.7397499951767,Correct,sub_003_day_05_data.csv,1,300,43.0,Training at home,,,,,,,,,,,,,
3,5,1097,B,44.409656581311474,30.98767397103788,2.2204828290655736,0.4867532444962412,B,818.2888750015991,Correct,sub_003_day_05_data.csv,1,300,43.0,Training at home,,,,,,,,,,,,,
3,5,1098,B,70.51146476230244,54.784127045833934,3.5255732381151224,0.860547055302609,B,539.085750002414,Correct,sub_003_day_05_data.csv,1,300,43.0,Training at home,,,,,,,,,,,,,
3,5,1099,A,43.118836508270725,71.15885817220281,2.1559418254135365,1.1177607303581516,B,1642.726500009303,Incorrect,sub_003_day_05_data.csv,0,300,43.0,Training at home,,,,,,,,,,,,,
3,5,1100,B,79.71339728460609,55.204477639450175,3.985669864230305,0.8671499069867934,B,509.5241659873864,Correct,sub_003_day_05_data.csv,1,300,44.0,Training at home,,,,,,,,,,,,,
3,5,1101,A,21.66909445018259,38.20158850064945,1.0834547225091296,0.6000691489455032,A,476.9835830084048,Correct,sub_003_day_05_data.csv,1,300,44.0,Training at home,,,,,,,,,,,,,
3,5,1102,A,26.399278400498396,50.47697322486583,1.3199639200249198,0.792890441293436,A,557.8112920047715,Correct,sub_003_day_05_data.csv,1,300,44.0,Training at home,,,,,,,,,,,,,
3,5,1103,B,72.19978133488061,51.22218046784225,3.609989066744031,0.804596129293119,B,415.4595839936519,Correct,sub_003_day_05_data.csv,1,300,44.0,Training at home,,,,,,,,,,,,,
3,5,1104,A,20.64769933029668,43.96962616559915,1.032384966514834,0.6906732727146792,A,490.939041992533,Correct,sub_003_day_05_data.csv,1,300,44.0,Training at home,,,,,,,,,,,,,
3,5,1105,A,18.81262380625882,45.562447265006426,0.940631190312941,0.7156932480365827,A,495.9328330005519,Correct,sub_003_day_05_data.csv,1,300,44.0,Training at home,,,,,,,,,,,,,
3,5,1106,B,50.85514292035417,26.58073778532612,2.5427571460177085,0.4175292527668858,B,553.8234580017161,Correct,sub_003_day_05_data.csv,1,300,44.0,Training at home,,,,,,,,,,,,,
3,5,1107,A,46.23262422822397,78.30847768010818,2.3116312114111985,1.2300666909681408,A,721.6101250087377,Correct,sub_003_day_05_data.csv,1,300,44.0,Training at home,,,,,,,,,,,,,
3,5,1108,A,46.499297214615325,56.73882426404724,2.3249648607307662,0.8912513674062656,B,955.9243340045214,Incorrect,sub_003_day_05_data.csv,0,300,44.0,Training at home,,,,,,,,,,,,,
3,5,1109,B,67.31721818694655,46.987317245110646,3.3658609093473273,0.7380750533456629,B,826.8530409986852,Correct,sub_003_day_05_data.csv,1,300,44.0,Training at home,,,,,,,,,,,,,
3,5,1110,B,45.40934328441162,28.602322106955963,2.270467164220581,0.4492842250341089,B,453.3392919984181,Correct,sub_003_day_05_data.csv,1,300,44.0,Training at home,,,,,,,,,,,,,
3,5,1111,B,34.742671609601445,16.221590212750385,1.7371335804800725,0.2548081432096035,A,1421.8653330026427,Incorrect,sub_003_day_05_data.csv,0,300,44.0,Training at home,,,,,,,,,,,,,
3,5,1112,A,46.7426339775309,64.56264032080439,2.337131698876545,1.0141475826409962,A,558.4532499924535,Correct,sub_003_day_05_data.csv,1,300,44.0,Training at home,,,,,,,,,,,,,
3,5,1113,A,43.87600633098565,73.46116518965528,2.1938003165492828,1.1539252844198362,B,797.0876670005964,Incorrect,sub_003_day_05_data.csv,0,300,44.0,Training at home,,,,,,,,,,,,,
3,5,1114,B,42.89066413367212,16.591499782786507,2.144533206683606,0.2606186691481937,B,1034.0536670119036,Correct,sub_003_day_05_data.csv,1,300,44.0,Training at home,,,,,,,,,,,,,
3,5,1115,B,39.5079881355677,28.01105070651958,1.975399406778385,0.4399965555946654,B,770.0453750003362,Correct,sub_003_day_05_data.csv,1,300,44.0,Training at home,,,,,,,,,,,,,
3,5,1116,B,70.31875445585558,54.09148927935959,3.515937722792779,0.8496671267088358,B,504.39275000826456,Correct,sub_003_day_05_data.csv,1,300,44.0,Training at home,,,,,,,,,,,,,
3,5,1117,B,62.75376082337741,55.30547206087587,3.1376880411688703,0.8687363236488161,B,510.3324160008924,Correct,sub_003_day_05_data.csv,1,300,44.0,Training at home,,,,,,,,,,,,,
3,5,1118,A,29.283928953277854,56.461176340257055,1.464196447663893,0.886890084017947,A,1137.3712079948746,Correct,sub_003_day_05_data.csv,1,300,44.0,Training at home,,,,,,,,,,,,,
3,5,1119,A,61.75247538646163,81.15239939541429,3.0876237693230815,1.2747389088090917,A,998.1257089966676,Correct,sub_003_day_05_data.csv,1,300,44.0,Training at home,,,,,,,,,,,,,
3,5,1120,A,17.586273925180006,46.87184443616915,0.8793136962590004,0.7362612107043631,A,516.505416992004,Correct,sub_003_day_05_data.csv,1,300,44.0,Training at home,,,,,,,,,,,,,
3,5,1121,A,69.28169346044287,87.9376579509928,3.464084673022143,1.3813215009636552,B,450.74866600043606,Incorrect,sub_003_day_05_data.csv,0,300,44.0,Training at home,,,,,,,,,,,,,
3,5,1122,B,51.88079749185184,21.162409458237832,2.594039874592592,0.3324183504312956,B,771.5155420009978,Correct,sub_003_day_05_data.csv,1,300,44.0,Training at home,,,,,,,,,,,,,
3,5,1123,A,64.18491246328266,84.00733292646645,3.209245623164133,1.3195840998472947,A,685.5290840030648,Correct,sub_003_day_05_data.csv,1,300,44.0,Training at home,,,,,,,,,,,,,
3,5,1124,A,57.897761281678726,81.91955348234538,2.8948880640839367,1.286789337027462,A,708.3421249990351,Correct,sub_003_day_05_data.csv,1,300,44.0,Training at home,,,,,,,,,,,,,
3,5,1125,B,64.0282969166792,31.19473265322692,3.20141484583396,0.4900057146703765,B,545.0585000071442,Correct,sub_003_day_05_data.csv,1,300,45.0,Training at home,,,,,,,,,,,,,
3,5,1126,A,37.023208191183194,62.934478275699846,1.8511604095591596,0.9885724730422254,A,569.3571669980884,Correct,sub_003_day_05_data.csv,1,300,45.0,Training at home,,,,,,,,,,,,,
3,5,1127,B,78.74007001878849,59.76842467559465,3.937003500939424,0.9388402193874154,B,606.6770829929737,Correct,sub_003_day_05_data.csv,1,300,45.0,Training at home,,,,,,,,,,,,,
3,5,1128,B,59.3033157614517,34.04567212044464,2.965165788072585,0.5347881671005786,B,646.8439170130296,Correct,sub_003_day_05_data.csv,1,300,45.0,Training at home,,,,,,,,,,,,,
3,5,1129,B,48.705025950954735,23.92666017854656,2.4352512975477367,0.3758390992093066,B,568.3903750032187,Correct,sub_003_day_05_data.csv,1,300,45.0,Training at home,,,,,,,,,,,,,
3,5,1130,B,55.9273690974529,43.254847468648826,2.796368454872645,0.6794455551982711,B,469.24929099623114,Correct,sub_003_day_05_data.csv,1,300,45.0,Training at home,,,,,,,,,,,,,
3,5,1131,A,53.25353443454197,74.18627544527244,2.662676721727099,1.165315289680284,A,823.5917499987409,Correct,sub_003_day_05_data.csv,1,300,45.0,Training at home,,,,,,,,,,,,,
3,5,1132,A,42.74961558416084,58.879187648511525,2.137480779208042,0.9248721168294932,A,703.9456659986172,Correct,sub_003_day_05_data.csv,1,300,45.0,Training at home,,,,,,,,,,,,,
3,5,1133,B,79.02151289988319,64.94691273142354,3.95107564499416,1.020183719551888,B,639.2307500063907,Correct,sub_003_day_05_data.csv,1,300,45.0,Training at home,,,,,,,,,,,,,
3,5,1134,B,69.4545994725131,59.550546593234,3.472729973625655,0.9354177984728032,B,604.1223329957575,Correct,sub_003_day_05_data.csv,1,300,45.0,Training at home,,,,,,,,,,,,,
3,5,1135,B,80.97304205888648,64.81436661047596,4.048652102944324,1.0181016899527342,B,526.0810420004418,Correct,sub_003_day_05_data.csv,1,300,45.0,Training at home,,,,,,,,,,,,,
3,5,1136,B,86.43141326922236,64.05840523435944,4.321570663461118,1.006227076424708,B,433.1144170137122,Correct,sub_003_day_05_data.csv,1,300,45.0,Training at home,,,,,,,,,,,,,
3,5,1137,A,25.442352941654633,50.68449954369221,1.2721176470827316,0.7961502570866934,A,528.4649579989491,Correct,sub_003_day_05_data.csv,1,300,45.0,Training at home,,,,,,,,,,,,,
3,5,1138,B,65.46216113419064,57.23404770567812,3.273108056709532,0.8990303190368307,B,509.7251660045003,Correct,sub_003_day_05_data.csv,1,300,45.0,Training at home,,,,,,,,,,,,,
3,5,1139,A,27.76992613272757,54.72582356737781,1.3884963066363785,0.8596312264046264,A,762.329959005001,Correct,sub_003_day_05_data.csv,1,300,45.0,Training at home,,,,,,,,,,,,,
3,5,1140,A,35.35611537496543,63.465376512332554,1.7678057687482716,0.9969118030422708,A,970.7033750019036,Correct,sub_003_day_05_data.csv,1,300,45.0,Training at home,,,,,,,,,,,,,
3,5,1141,A,47.14714174547891,79.00634450245597,2.3573570872739453,1.2410287573795002,A,522.9578750004293,Correct,sub_003_day_05_data.csv,1,300,45.0,Training at home,,,,,,,,,,,,,
3,5,1142,B,70.87276303259434,49.345351674881506,3.5436381516297164,0.7751149715530627,B,448.92191600229125,Correct,sub_003_day_05_data.csv,1,300,45.0,Training at home,,,,,,,,,,,,,
3,5,1143,A,44.14063089239671,69.38946685287662,2.207031544619835,1.089967196507548,A,530.8123750000959,Correct,sub_003_day_05_data.csv,1,300,45.0,Training at home,,,,,,,,,,,,,
3,5,1144,A,39.5608449037819,47.84736118002286,1.978042245189095,0.7515845918840864,A,633.1910000008065,Correct,sub_003_day_05_data.csv,1,300,45.0,Training at home,,,,,,,,,,,,,
3,5,1145,A,45.319541860229506,53.542326152453285,2.2659770930114753,0.8410408924832795,B,697.6187079999363,Incorrect,sub_003_day_05_data.csv,0,300,45.0,Training at home,,,,,,,,,,,,,
3,5,1146,B,61.74652755664177,35.28421761311996,3.0873263778320887,0.5542431942052062,B,512.7013330056798,Correct,sub_003_day_05_data.csv,1,300,45.0,Training at home,,,,,,,,,,,,,
3,5,1147,A,52.43936866619665,63.92637972734301,2.6219684333098328,1.0041532246100613,A,755.6187500013039,Correct,sub_003_day_05_data.csv,1,300,45.0,Training at home,,,,,,,,,,,,,
3,5,1148,A,16.425024907734297,44.58802869564691,0.8212512453867149,0.7003871169414762,A,485.4717920097755,Correct,sub_003_day_05_data.csv,1,300,45.0,Training at home,,,,,,,,,,,,,
3,5,1149,B,47.030718415479384,25.2473096896055,2.3515359207739692,0.3965838132188552,B,421.83620799914934,Correct,sub_003_day_05_data.csv,1,300,45.0,Training at home,,,,,,,,,,,,,
3,5,1150,B,44.595856102396134,29.142376401594525,2.2297928051198066,0.4577673780569894,B,647.4484579957789,Correct,sub_003_day_05_data.csv,1,300,46.0,Training at home,,,,,,,,,,,,,
3,5,1151,A,34.18516261914717,65.80354704897769,1.709258130957359,1.0336396999460933,A,762.1466670098016,Correct,sub_003_day_05_data.csv,1,300,46.0,Training at home,,,,,,,,,,,,,
3,5,1152,B,77.49310117339859,45.38649455099865,3.8746550586699295,0.7129293892680527,B,1126.1323329963489,Correct,sub_003_day_05_data.csv,1,300,46.0,Training at home,,,,,,,,,,,,,
3,5,1153,B,32.01508825696755,15.142623430498563,1.6007544128483775,0.2378597726266547,A,632.0200420013862,Incorrect,sub_003_day_05_data.csv,0,300,46.0,Training at home,,,,,,,,,,,,,
3,5,1154,A,49.05114928248245,59.31169439548968,2.4525574641241223,0.9316659169241664,B,985.0112499989336,Incorrect,sub_003_day_05_data.csv,0,300,46.0,Training at home,,,,,,,,,,,,,
3,5,1155,A,31.815561712059687,60.33237240778914,1.5907780856029845,0.9476986896497696,A,488.8757500011707,Correct,sub_003_day_05_data.csv,1,300,46.0,Training at home,,,,,,,,,,,,,
3,5,1156,B,84.21452993168467,58.07035105649202,4.210726496584233,0.912166941352278,B,863.8171659986256,Correct,sub_003_day_05_data.csv,1,300,46.0,Training at home,,,,,,,,,,,,,
3,5,1157,B,74.0625600464805,54.41912582579845,3.703128002324025,0.8548136295455352,B,946.480167011032,Correct,sub_003_day_05_data.csv,1,300,46.0,Training at home,,,,,,,,,,,,,
3,5,1158,B,51.57331827556833,29.759666626203312,2.5786659137784165,0.4674637502308083,B,746.9909580104286,Correct,sub_003_day_05_data.csv,1,300,46.0,Training at home,,,,,,,,,,,,,
3,5,1159,A,58.77780457965493,84.85039848949151,2.9388902289827468,1.3328269427437651,A,780.3462080046302,Correct,sub_003_day_05_data.csv,1,300,46.0,Training at home,,,,,,,,,,,,,
3,5,1160,A,52.23069335888896,59.462698948587274,2.611534667944448,0.9340378908975164,B,487.0764579973184,Incorrect,sub_003_day_05_data.csv,0,300,46.0,Training at home,,,,,,,,,,,,,
3,5,1161,A,48.90987173378641,59.1942331244126,2.4454935866893206,0.929820839592681,A,628.9585839986103,Correct,sub_003_day_05_data.csv,1,300,46.0,Training at home,,,,,,,,,,,,,
3,5,1162,A,20.83891105776101,48.54784588817856,1.0419455528880506,0.762587779949556,A,518.7448329961626,Correct,sub_003_day_05_data.csv,1,300,46.0,Training at home,,,,,,,,,,,,,
3,5,1163,B,37.99760573269854,27.218708464628328,1.899880286634927,0.4275504727633933,A,592.0491249999031,Incorrect,sub_003_day_05_data.csv,0,300,46.0,Training at home,,,,,,,,,,,,,
3,5,1164,B,77.09167458056457,58.332726424892456,3.8545837290282288,0.9162883240015266,B,419.9834579922026,Correct,sub_003_day_05_data.csv,1,300,46.0,Training at home,,,,,,,,,,,,,
3,5,1165,B,74.92274466229665,53.89084716578316,3.746137233114832,0.8465154477587736,B,619.1345420083962,Correct,sub_003_day_05_data.csv,1,300,46.0,Training at home,,,,,,,,,,,,,
3,5,1166,B,70.01187031790619,39.31488172651183,3.5005935158953094,0.617556718043806,B,511.2764999939827,Correct,sub_003_day_05_data.csv,1,300,46.0,Training at home,,,,,,,,,,,,,
3,5,1167,B,77.93143733193551,60.99167327055679,3.896571866596775,0.9580549633846508,B,513.8535419973778,Correct,sub_003_day_05_data.csv,1,300,46.0,Training at home,,,,,,,,,,,,,
3,5,1168,A,58.75997418648437,86.21800441248911,2.937998709324218,1.3543092463472406,A,615.285333013162,Correct,sub_003_day_05_data.csv,1,300,46.0,Training at home,,,,,,,,,,,,,
3,5,1169,B,39.89262779713111,25.240499297082273,1.9946313898565555,0.3964768358232601,B,669.4527079962427,Correct,sub_003_day_05_data.csv,1,300,46.0,Training at home,,,,,,,,,,,,,
3,5,1170,B,74.59907302847398,53.78126285718246,3.729953651423699,0.8447941014645302,B,539.4666659994982,Correct,sub_003_day_05_data.csv,1,300,46.0,Training at home,,,,,,,,,,,,,
3,5,1171,A,22.518121498828023,41.67414617204955,1.1259060749414012,0.6546159572936903,A,493.1126250012312,Correct,sub_003_day_05_data.csv,1,300,46.0,Training at home,,,,,,,,,,,,,
3,5,1172,B,77.14131637037686,57.01542165492817,3.8570658185188424,0.8955961490622337,B,447.3097080044681,Correct,sub_003_day_05_data.csv,1,300,46.0,Training at home,,,,,,,,,,,,,
3,5,1173,B,69.775135597506,49.53533276530778,3.4887567798753,0.7780991875430833,B,564.233790995786,Correct,sub_003_day_05_data.csv,1,300,46.0,Training at home,,,,,,,,,,,,,
3,5,1174,A,38.137909466799286,63.894422598026125,1.906895473339964,1.0036512431966027,A,827.2408749908209,Correct,sub_003_day_05_data.csv,1,300,46.0,Training at home,,,,,,,,,,,,,
3,5,1175,A,66.1672492410657,84.08622020393625,3.308362462053285,1.3208232583040989,A,713.8979579904117,Correct,sub_003_day_05_data.csv,1,300,47.0,Training at home,,,,,,,,,,,,,
3,5,1176,B,75.19829430477209,50.219510208647435,3.759914715238605,0.788846221691822,B,520.3992500028107,Correct,sub_003_day_05_data.csv,1,300,47.0,Training at home,,,,,,,,,,,,,
3,5,1177,B,50.01396342538169,24.092769896623498,2.500698171269085,0.3784483445593085,B,896.4811250043567,Correct,sub_003_day_05_data.csv,1,300,47.0,Training at home,,,,,,,,,,,,,
3,5,1178,B,41.51090510392771,22.50918797899972,2.0755452551963858,0.353573497965486,A,810.1890830002958,Incorrect,sub_003_day_05_data.csv,0,300,47.0,Training at home,,,,,,,,,,,,,
3,5,1179,B,73.33001301978697,62.28443689355853,3.6665006509893487,0.9783616468889028,B,530.4367080098018,Correct,sub_003_day_05_data.csv,1,300,47.0,Training at home,,,,,,,,,,,,,
3,5,1180,A,34.23579950433433,46.03806267329348,1.7117899752167165,0.7231641973996265,A,1038.968875000137,Correct,sub_003_day_05_data.csv,1,300,47.0,Training at home,,,,,,,,,,,,,
3,5,1181,A,42.299679885868215,54.907724051136114,2.1149839942934108,0.8624885125219239,B,664.2677499912679,Incorrect,sub_003_day_05_data.csv,0,300,47.0,Training at home,,,,,,,,,,,,,
3,5,1182,B,69.25187820111884,59.3880397623049,3.462593910055942,0.932865147141778,B,481.111624991172,Correct,sub_003_day_05_data.csv,1,300,47.0,Training at home,,,,,,,,,,,,,
3,5,1183,B,59.6504314088646,28.04111506329912,2.9825215704432297,0.4404688054066329,B,564.3635830056155,Correct,sub_003_day_05_data.csv,1,300,47.0,Training at home,,,,,,,,,,,,,
3,5,1184,B,60.84727685956453,49.92254097117349,3.0423638429782267,0.7841814398178703,B,515.8370409917552,Correct,sub_003_day_05_data.csv,1,300,47.0,Training at home,,,,,,,,,,,,,
3,5,1185,B,78.85157755984638,64.25537693035216,3.9425788779923185,1.009321100590187,B,467.7411250013392,Correct,sub_003_day_05_data.csv,1,300,47.0,Training at home,,,,,,,,,,,,,
3,5,1186,B,49.62186633301476,38.5153983550794,2.481093316650738,0.6049984626120092,B,512.5576249993173,Correct,sub_003_day_05_data.csv,1,300,47.0,Training at home,,,,,,,,,,,,,
3,5,1187,B,66.19787283420551,41.88055578167739,3.3098936417102753,0.657858231859876,B,458.1628750020173,Correct,sub_003_day_05_data.csv,1,300,47.0,Training at home,,,,,,,,,,,,,
3,5,1188,B,55.24081784918481,39.90277481278672,2.76204089245924,0.6267913210484929,B,723.2532079942757,Correct,sub_003_day_05_data.csv,1,300,47.0,Training at home,,,,,,,,,,,,,
3,5,1189,B,60.34941750887084,48.53129310095841,3.017470875443542,0.7623277693759197,B,350.18162499181926,Correct,sub_003_day_05_data.csv,1,300,47.0,Training at home,,,,,,,,,,,,,
3,5,1190,B,51.60799274486904,35.14922310346996,2.5803996372434517,0.5521227054062492,B,720.5116669938434,Correct,sub_003_day_05_data.csv,1,300,47.0,Training at home,,,,,,,,,,,,,
3,5,1191,A,14.038073817304436,42.87559046838078,0.7019036908652219,0.6734882001689481,A,550.0537089974387,Correct,sub_003_day_05_data.csv,1,300,47.0,Training at home,,,,,,,,,,,,,
3,5,1192,A,27.96170073231606,60.373964165156266,1.3980850366158029,0.948352011446742,A,545.9620420006104,Correct,sub_003_day_05_data.csv,1,300,47.0,Training at home,,,,,,,,,,,,,
3,5,1193,B,44.42552771236761,34.08635330959464,2.221276385618381,0.5354271857254433,B,646.1126670037629,Correct,sub_003_day_05_data.csv,1,300,47.0,Training at home,,,,,,,,,,,,,
3,5,1194,A,45.12502537970998,65.86921310709212,2.256251268985499,1.0346711799749055,B,1199.9876250047237,Incorrect,sub_003_day_05_data.csv,0,300,47.0,Training at home,,,,,,,,,,,,,
3,5,1195,A,56.50541156674707,75.45885842332768,2.8252705783373533,1.1853049763549928,A,748.3295840065693,Correct,sub_003_day_05_data.csv,1,300,47.0,Training at home,,,,,,,,,,,,,
3,5,1196,B,53.752972405750995,27.62960804342231,2.6876486202875496,0.4340048682539049,B,1157.030083995778,Correct,sub_003_day_05_data.csv,1,300,47.0,Training at home,,,,,,,,,,,,,
3,5,1197,B,50.91111214898669,32.11790291222095,2.545555607449334,0.5045068391887177,B,1252.0562909921864,Correct,sub_003_day_05_data.csv,1,300,47.0,Training at home,,,,,,,,,,,,,
3,5,1198,A,29.76527308221973,56.91199894759827,1.4882636541109864,0.8939715889744239,A,725.4615839920007,Correct,sub_003_day_05_data.csv,1,300,47.0,Training at home,,,,,,,,,,,,,
3,5,1199,B,76.52773042308166,47.82063936982486,3.8263865211540833,0.7511648466710431,B,401.9144580088323,Correct,sub_003_day_05_data.csv,1,300,47.0,Training at home,,,,,,,,,,,,,
