subject,day,trial,cat,x,y,xt,yt,resp,rt,fb,f_name,acc,n_trials,block,session_type,ns_left_digit,ns_right_digit,ns_left_size,ns_right_size,ns_congruent,ns_cue,ns_correct_side,ns_resp,ns_rt,ns_fb,acc_stroop,acc_stroop_mean,resp_key
3,22,0,B,62.84067500095271,55.16749191112447,3.142033750047635,0.8665689365248148,A,1404.8825000063516,Incorrect,sub_003_day_22_data.csv,0,445,,Dual-Task at home,4.0,6.0,big,small,False,Value,right,right,3065.2831249753945,Correct,1.0,0.946067415730337,
3,22,1,A,14.922311707016709,33.33719170708426,0.7461155853508353,0.5236593827914524,A,1958.0281239468604,Correct,sub_003_day_22_data.csv,1,445,,Dual-Task at home,6.0,2.0,small,big,False,Value,left,left,1620.340166031383,Correct,1.0,0.946067415730337,
3,22,2,A,62.72201474659942,80.91086093131939,3.1361007373299707,1.2709448314872922,A,1213.3608739823103,Correct,sub_003_day_22_data.csv,1,445,,Dual-Task at home,3.0,6.0,small,big,True,Value,right,right,2254.258040979039,Correct,1.0,0.946067415730337,
3,22,3,B,72.64352529723823,57.54903382945888,3.6321762648619114,0.9039781094990924,B,1457.553625048604,Correct,sub_003_day_22_data.csv,1,445,,Dual-Task at home,5.0,2.0,small,big,False,Value,left,left,1893.6229579849169,Correct,1.0,0.946067415730337,
3,22,4,A,51.08815815916007,64.31703789709312,2.5544079079580033,1.0102896687908205,A,1661.457666021306,Correct,sub_003_day_22_data.csv,1,445,,Dual-Task at home,5.0,6.0,big,small,False,Value,right,right,1235.2798330248334,Correct,1.0,0.946067415730337,
3,22,5,B,69.33963210482392,42.295593019379744,3.466981605241196,0.6643776215445356,B,1189.2146239988506,Correct,sub_003_day_22_data.csv,1,445,,Dual-Task at home,2.0,7.0,big,small,False,Size,left,left,1394.302123982925,Correct,1.0,0.946067415730337,
3,22,6,A,22.642103216356652,44.7353826299375,1.1321051608178323,0.7027017471287004,A,989.3068740493618,Correct,sub_003_day_22_data.csv,1,445,,Dual-Task at home,5.0,3.0,small,big,False,Size,right,right,1667.6509160315618,Correct,1.0,0.946067415730337,
3,22,7,B,49.50463733210276,36.70557779617885,2.475231866605138,0.5765698677512205,B,2078.006333031226,Correct,sub_003_day_22_data.csv,1,445,,Dual-Task at home,5.0,2.0,small,big,False,Value,left,left,1526.3041240395978,Correct,1.0,0.946067415730337,
3,22,8,A,44.257524935343895,74.93220765833303,2.2128762467671947,1.1770323654834194,A,1573.25633300934,Correct,sub_003_day_22_data.csv,1,445,,Dual-Task at home,3.0,6.0,big,small,False,Value,right,right,1205.245082965121,Correct,1.0,0.946067415730337,
3,22,9,A,56.11532845817294,73.4540082713803,2.805766422908647,1.1538128638104612,A,1054.33129100129,Correct,sub_003_day_22_data.csv,1,445,,Dual-Task at home,2.0,7.0,big,small,False,Value,right,right,1135.0666239741258,Correct,1.0,0.946067415730337,
3,22,10,A,59.282735132166266,85.46455278534631,2.9641367566083137,1.3424740558639052,A,769.1627489984967,Correct,sub_003_day_22_data.csv,1,445,,Dual-Task at home,8.0,4.0,big,small,True,Size,left,left,1611.207332985941,Correct,1.0,0.946067415730337,
3,22,11,B,74.35335772955773,48.09680575370161,3.7176678864778863,0.7555028580848214,B,758.4157909732312,Correct,sub_003_day_22_data.csv,1,445,,Dual-Task at home,4.0,2.0,small,big,False,Value,left,left,1249.598041002173,Correct,1.0,0.946067415730337,
3,22,12,A,19.916758103414132,33.06846956106418,0.9958379051707068,0.5194383051924846,A,797.2644579713233,Correct,sub_003_day_22_data.csv,1,445,,Dual-Task at home,4.0,6.0,big,small,False,Value,right,right,1302.5683750165626,Correct,1.0,0.946067415730337,
3,22,13,A,51.07073722445459,75.3045062829465,2.55353686122273,1.182880418603556,A,752.8294159565121,Correct,sub_003_day_22_data.csv,1,445,,Dual-Task at home,2.0,4.0,big,small,False,Value,right,right,1097.1116659929976,Correct,1.0,0.946067415730337,
3,22,14,A,34.59152365606504,64.25759131226404,1.7295761828032523,1.00935588401992,A,873.5024579800665,Correct,sub_003_day_22_data.csv,1,445,,Dual-Task at home,2.0,6.0,big,small,False,Value,right,right,1154.600040987134,Correct,1.0,0.946067415730337,
3,22,15,A,22.529270321613385,38.74219087510623,1.1264635160806693,0.6085609111860363,A,1356.5902070258744,Correct,sub_003_day_22_data.csv,1,445,,Dual-Task at home,4.0,7.0,small,big,True,Size,right,right,573.3120410004631,Correct,1.0,0.946067415730337,
3,22,16,B,85.59670210332537,56.755806618238154,4.279835105166268,0.8915181256020999,B,840.1503750355914,Correct,sub_003_day_22_data.csv,1,445,,Dual-Task at home,5.0,4.0,small,big,False,Value,left,left,1277.0200820523314,Correct,1.0,0.946067415730337,
3,22,17,B,64.74576546798846,35.441732153879705,3.237288273399423,0.5567174268256282,B,737.2555409674533,Correct,sub_003_day_22_data.csv,1,445,,Dual-Task at home,4.0,7.0,big,small,False,Value,right,right,1430.5484570213594,Correct,1.0,0.946067415730337,
3,22,18,B,55.394269095468985,43.30780690117727,2.7697134547734494,0.6802774400191193,B,2068.6681660008617,Correct,sub_003_day_22_data.csv,1,445,,Dual-Task at home,2.0,8.0,big,small,False,Value,right,right,2066.625748993829,Correct,1.0,0.946067415730337,
3,22,19,B,49.45072513706224,20.045811597154987,2.472536256853112,0.3148788722443359,B,968.44670700375,Correct,sub_003_day_22_data.csv,1,445,,Dual-Task at home,6.0,5.0,small,big,False,Value,left,left,775.6356250029057,Correct,1.0,0.946067415730337,
3,22,20,A,32.41616992090975,50.73270436564743,1.6208084960454874,0.796907456659304,A,1427.9021239490248,Correct,sub_003_day_22_data.csv,1,445,,Dual-Task at home,8.0,3.0,small,big,False,Value,left,left,755.2341659902595,Correct,1.0,0.946067415730337,
3,22,21,A,57.66666578313681,70.59170730299844,2.88333328915684,1.1088519453373042,A,1154.2859160108492,Correct,sub_003_day_22_data.csv,1,445,,Dual-Task at home,2.0,4.0,big,small,False,Value,right,right,961.1013740068302,Correct,1.0,0.946067415730337,
3,22,22,A,31.02249570215492,41.90370473110052,1.551124785107746,0.6582218547071063,A,963.1393320159988,Correct,sub_003_day_22_data.csv,1,445,,Dual-Task at home,4.0,8.0,big,small,False,Value,right,right,1720.058373990469,Correct,1.0,0.946067415730337,
3,22,23,A,54.68676828839468,74.56795240229343,2.7343384144197342,1.171310657301392,A,645.9820410236716,Correct,sub_003_day_22_data.csv,1,445,,Dual-Task at home,5.0,7.0,big,small,False,Size,left,left,664.0661240089685,Correct,1.0,0.946067415730337,
3,22,24,B,49.25364926414237,22.284239082684465,2.4626824632071185,0.3500400089650003,B,682.2327490081079,Correct,sub_003_day_22_data.csv,1,445,,Dual-Task at home,7.0,4.0,big,small,True,Value,left,left,629.3664159602486,Correct,1.0,0.946067415730337,
3,22,25,B,75.96228093964554,44.827444189702696,3.798114046982277,0.7041478467278822,B,635.7869579805993,Correct,sub_003_day_22_data.csv,1,445,,Dual-Task at home,6.0,5.0,small,big,False,Value,left,left,499.6817909996025,Correct,1.0,0.946067415730337,
3,22,26,B,73.31212076209995,45.77102847630224,3.6656060381049977,0.7189696340420016,B,856.7698739934713,Correct,sub_003_day_22_data.csv,1,445,,Dual-Task at home,8.0,5.0,small,big,False,Value,left,right,603.3037080196664,Incorrect,0.0,0.946067415730337,
3,22,27,B,42.54972886342378,26.51128428207732,2.127486443171189,0.4164382796890232,B,1081.612499023322,Correct,sub_003_day_22_data.csv,1,445,,Dual-Task at home,8.0,4.0,small,big,False,Size,right,right,1129.9562909989618,Correct,1.0,0.946067415730337,
3,22,28,B,57.66302368917032,39.40086548711319,2.883151184458516,0.618907347796972,B,1264.7925000055693,Correct,sub_003_day_22_data.csv,1,445,,Dual-Task at home,2.0,3.0,big,small,False,Size,left,left,1705.3483739728108,Correct,1.0,0.946067415730337,
3,22,29,B,61.83614572782043,53.500998985924376,3.0918072863910213,0.8403917268694749,B,876.8633319996297,Correct,sub_003_day_22_data.csv,1,445,,Dual-Task at home,8.0,6.0,big,small,True,Value,left,left,1187.7495819935575,Correct,1.0,0.946067415730337,
3,22,30,B,63.47505988242579,48.18876543307925,3.1737529941212896,0.7569473573506176,B,834.9032489932142,Correct,sub_003_day_22_data.csv,1,445,,Dual-Task at home,5.0,8.0,small,big,True,Value,right,right,3213.864332996309,Correct,1.0,0.946067415730337,
3,22,31,B,76.40533895054007,53.73870328502291,3.8202669475270032,0.8441255772683482,B,721.8221240327694,Correct,sub_003_day_22_data.csv,1,445,,Dual-Task at home,8.0,4.0,small,big,False,Size,right,right,4920.643291028682,Correct,1.0,0.946067415730337,
3,22,32,B,82.94198193543608,63.50093171946885,4.147099096771804,0.9974703029299522,B,1958.655081980396,Correct,sub_003_day_22_data.csv,1,445,,Dual-Task at home,6.0,4.0,small,big,False,Size,right,right,1233.8304570293983,Correct,1.0,0.946067415730337,
3,22,33,B,51.737293225508225,30.061429805170448,2.586864661275411,0.4722038351616436,B,551.8589990097098,Correct,sub_003_day_22_data.csv,1,445,,Dual-Task at home,5.0,4.0,small,big,False,Size,right,right,1062.139665998984,Correct,1.0,0.946067415730337,
3,22,34,B,52.23855543667712,30.789331766631115,2.611927771833856,0.4836376924349357,B,1233.3069159649312,Correct,sub_003_day_22_data.csv,1,445,,Dual-Task at home,7.0,4.0,small,big,False,Size,right,right,1207.5922490330413,Correct,1.0,0.946067415730337,
3,22,35,A,46.114892694170784,67.51157831466624,2.3057446347085393,1.0604693923280373,A,1642.3614990198985,Correct,sub_003_day_22_data.csv,1,445,,Dual-Task at home,7.0,8.0,big,small,False,Value,right,right,969.3076250259764,Correct,1.0,0.946067415730337,
3,22,36,B,66.14698376955454,43.25380748787637,3.307349188477727,0.679429219218498,B,980.2838330506348,Correct,sub_003_day_22_data.csv,1,445,,Dual-Task at home,3.0,2.0,small,big,False,Value,left,left,2476.852498948574,Correct,1.0,0.946067415730337,
3,22,37,A,54.49924727657048,79.13137014985418,2.724962363828524,1.2429926556563824,A,712.2839989606291,Correct,sub_003_day_22_data.csv,1,445,,Dual-Task at home,5.0,6.0,big,small,False,Size,left,left,2362.983332015574,Correct,1.0,0.946067415730337,
3,22,38,B,66.9099397400781,34.805936382217716,3.3454969870039055,0.5467303701984444,B,773.7937080091797,Correct,sub_003_day_22_data.csv,1,445,,Dual-Task at home,4.0,2.0,big,small,True,Value,left,left,5424.750249949284,Correct,1.0,0.946067415730337,
3,22,39,A,51.02716706635261,81.32926036409404,2.5513583533176303,1.277517034408647,A,1747.3250409821048,Correct,sub_003_day_22_data.csv,1,445,,Dual-Task at home,6.0,3.0,small,big,False,Size,right,right,2705.611083016265,Correct,1.0,0.946067415730337,
3,22,40,A,33.548438005420806,59.34016682961224,1.6774219002710402,0.9321131608735126,A,844.7110409615561,Correct,sub_003_day_22_data.csv,1,445,,Dual-Task at home,3.0,4.0,big,small,False,Value,right,right,3452.518707024865,Correct,1.0,0.946067415730337,
3,22,41,B,43.516548825410595,33.731108746902656,2.17582744127053,0.529847017183539,B,1445.0396659667604,Correct,sub_003_day_22_data.csv,1,445,,Dual-Task at home,8.0,6.0,small,big,False,Value,left,left,857.405374001246,Correct,1.0,0.946067415730337,
3,22,42,A,35.47360435305443,56.94751513259976,1.7736802176527215,0.894529475903845,A,562.7078740508296,Correct,sub_003_day_22_data.csv,1,445,,Dual-Task at home,5.0,4.0,small,big,False,Value,left,left,2223.117750021629,Correct,1.0,0.946067415730337,
3,22,43,A,39.00539294076754,68.72916504329295,1.9502696470383771,1.0795951999368478,A,758.7420410127379,Correct,sub_003_day_22_data.csv,1,445,,Dual-Task at home,6.0,8.0,big,small,False,Value,right,right,847.4807490129024,Correct,1.0,0.946067415730337,
3,22,44,B,53.99721077570475,45.34750993047329,2.6998605387852375,0.7123170202808252,B,929.0522080264054,Correct,sub_003_day_22_data.csv,1,445,,Dual-Task at home,2.0,3.0,big,small,False,Value,right,right,868.0957910255529,Correct,1.0,0.946067415730337,
3,22,45,B,48.59145040672592,21.77132491911243,2.429572520336296,0.3419831721240001,B,767.6155410008505,Correct,sub_003_day_22_data.csv,1,445,,Dual-Task at home,3.0,2.0,small,big,False,Size,right,right,2745.220040960703,Correct,1.0,0.946067415730337,
3,22,46,B,89.9720943580101,67.37543028317697,4.498604717900505,1.0583307840504002,B,2293.310791021213,Correct,sub_003_day_22_data.csv,1,445,,Dual-Task at home,3.0,4.0,big,small,False,Value,right,right,1369.5243319962174,Correct,1.0,0.946067415730337,
3,22,47,B,53.46846446826522,35.327128825426925,2.673423223413261,0.5549172419519073,B,887.0974989840761,Correct,sub_003_day_22_data.csv,1,445,,Dual-Task at home,3.0,2.0,small,big,False,Value,left,left,1315.020290960092,Correct,1.0,0.946067415730337,
3,22,48,B,71.4894171024429,43.506919937224495,3.574470855122145,0.6834051002755188,B,1151.9158329465429,Correct,sub_003_day_22_data.csv,1,445,,Dual-Task at home,4.0,2.0,small,big,False,Size,right,left,1842.3528319690377,Incorrect,0.0,0.946067415730337,
3,22,49,B,36.47338398068198,20.08311356588681,1.823669199034099,0.3154648101989976,B,1004.05937503092,Correct,sub_003_day_22_data.csv,1,445,,Dual-Task at home,2.0,7.0,small,big,True,Value,right,right,1150.1445819740184,Correct,1.0,0.946067415730337,
3,22,50,A,36.3439962064645,69.52980505008048,1.8171998103232252,1.0921716237543166,A,1262.468250002712,Correct,sub_003_day_22_data.csv,1,445,,Dual-Task at home,6.0,7.0,big,small,False,Size,left,left,1275.060416024644,Correct,1.0,0.946067415730337,
3,22,51,A,60.6028874631256,84.61383819340226,3.03014437315628,1.3291110623021398,A,967.2949989908376,Correct,sub_003_day_22_data.csv,1,445,,Dual-Task at home,5.0,4.0,big,small,True,Value,left,left,791.2909999722615,Correct,1.0,0.946067415730337,
3,22,52,A,36.51550796919821,55.68327390730268,1.8257753984599103,0.8746708211750516,A,1501.0801249882206,Correct,sub_003_day_22_data.csv,1,445,,Dual-Task at home,7.0,8.0,big,small,False,Size,left,left,742.8014579927549,Correct,1.0,0.946067415730337,
3,22,53,B,58.45340192180764,40.95130937495394,2.922670096090382,0.6432616634361905,B,850.4410829627886,Correct,sub_003_day_22_data.csv,1,445,,Dual-Task at home,4.0,2.0,small,big,False,Value,left,left,1077.1588330389932,Correct,1.0,0.946067415730337,
3,22,54,B,38.81247794586454,12.704589062689864,1.9406238972932273,0.1995632183311185,B,2366.3750409614295,Correct,sub_003_day_22_data.csv,1,445,,Dual-Task at home,2.0,5.0,big,small,False,Size,left,left,2503.6391239846125,Correct,1.0,0.946067415730337,
3,22,55,B,73.98497667762936,63.930478410138875,3.699248833881468,1.004217606568866,B,709.9625829723664,Correct,sub_003_day_22_data.csv,1,445,,Dual-Task at home,3.0,5.0,big,small,False,Value,right,left,1075.4079580074176,Incorrect,0.0,0.946067415730337,
3,22,56,A,37.962049257101825,64.92523287632211,1.898102462855091,1.0198431731843003,A,827.781499014236,Correct,sub_003_day_22_data.csv,1,445,,Dual-Task at home,8.0,4.0,small,big,False,Size,right,right,889.1471659881063,Correct,1.0,0.946067415730337,
3,22,57,B,45.250870674181385,23.45537168423813,2.26254353370907,0.3684361168521028,B,702.561249025166,Correct,sub_003_day_22_data.csv,1,445,,Dual-Task at home,6.0,3.0,big,small,True,Size,left,left,1396.9858739874326,Correct,1.0,0.946067415730337,
3,22,58,A,44.89570342728647,53.23704280803597,2.244785171364323,0.8362455129228556,B,705.8389160083607,Incorrect,sub_003_day_22_data.csv,0,445,,Dual-Task at home,6.0,2.0,small,big,False,Size,right,right,2091.9626239920035,Correct,1.0,0.946067415730337,
3,22,59,B,58.29674185899958,49.58100271400302,2.9148370929499787,0.7788165694196374,B,1234.766415960621,Correct,sub_003_day_22_data.csv,1,445,,Dual-Task at home,2.0,8.0,big,small,False,Value,right,right,1934.9120410042815,Correct,1.0,0.946067415730337,
3,22,60,A,65.64426859758296,79.13178229398096,3.282213429879148,1.2429991296011873,A,975.8430409710854,Correct,sub_003_day_22_data.csv,1,445,,Dual-Task at home,5.0,6.0,small,big,True,Size,right,right,1962.2123329900205,Correct,1.0,0.946067415730337,
3,22,61,B,56.5740803906726,29.9728552110658,2.82870401953363,0.4708125086909743,B,829.4830410159193,Correct,sub_003_day_22_data.csv,1,445,,Dual-Task at home,8.0,2.0,small,big,False,Size,right,right,944.334957981482,Correct,1.0,0.946067415730337,
3,22,62,A,44.0706638243266,61.17197167704077,2.20353319121633,0.9608870841309708,A,1363.55462402571,Correct,sub_003_day_22_data.csv,1,445,,Dual-Task at home,4.0,3.0,small,big,False,Size,right,right,1313.746956991963,Correct,1.0,0.946067415730337,
3,22,63,A,46.48846827722775,54.88770966638706,2.3244234138613877,0.8621741273014553,A,509.57904098322615,Correct,sub_003_day_22_data.csv,1,445,,Dual-Task at home,5.0,3.0,small,big,False,Value,left,left,1337.744707998354,Correct,1.0,0.946067415730337,
3,22,64,B,73.7994753991647,58.53010483524372,3.689973769958235,0.9193887368212106,B,2221.457498962991,Correct,sub_003_day_22_data.csv,1,445,,Dual-Task at home,4.0,8.0,big,small,False,Value,right,right,1803.067249013111,Correct,1.0,0.946067415730337,
3,22,65,A,44.01946545898644,72.16895700860164,2.200973272949322,1.1336273257773024,A,1091.1647079628892,Correct,sub_003_day_22_data.csv,1,445,,Dual-Task at home,6.0,2.0,small,big,False,Value,left,left,801.3963319826871,Correct,1.0,0.946067415730337,
3,22,66,B,35.84716151675657,16.878984544818316,1.7923580758378284,0.2651344692302844,B,704.0969160152599,Correct,sub_003_day_22_data.csv,1,445,,Dual-Task at home,4.0,7.0,small,big,True,Size,right,right,2648.657165991608,Correct,1.0,0.946067415730337,
3,22,67,B,44.02749092228094,29.10639062545559,2.2013745461140473,0.4572021148072305,B,674.4128330028616,Correct,sub_003_day_22_data.csv,1,445,,Dual-Task at home,8.0,2.0,small,big,False,Value,left,left,1780.295624048449,Correct,1.0,0.946067415730337,
3,22,68,A,44.03481680577628,63.12728899923187,2.201740840288814,0.9916011368051332,A,791.2158740218729,Correct,sub_003_day_22_data.csv,1,445,,Dual-Task at home,8.0,7.0,small,big,False,Value,left,left,1319.9291250202805,Correct,1.0,0.946067415730337,
3,22,69,A,52.13520769887676,64.47043115216064,2.606760384943838,1.0126991644069725,A,4023.272624006495,Correct,sub_003_day_22_data.csv,1,445,,Dual-Task at home,7.0,4.0,small,big,False,Value,left,left,4075.731666001957,Correct,1.0,0.946067415730337,
3,22,70,A,42.314257234667686,53.05565524326244,2.115712861733384,0.8333962837181303,A,1503.1417909776792,Correct,sub_003_day_22_data.csv,1,445,,Dual-Task at home,5.0,4.0,big,small,True,Value,left,left,1939.8130410118029,Correct,1.0,0.946067415730337,
3,22,71,A,29.38879100224178,47.1497556343537,1.4694395501120892,0.7406266295971976,A,900.0641250167973,Correct,sub_003_day_22_data.csv,1,445,,Dual-Task at home,6.0,2.0,small,big,False,Size,right,right,2995.542499993462,Correct,1.0,0.946067415730337,
3,22,72,A,43.09646736024232,72.113559520248,2.154823368012116,1.132757144065107,A,834.8066250327975,Correct,sub_003_day_22_data.csv,1,445,,Dual-Task at home,6.0,5.0,small,big,False,Value,left,left,2584.3064159853384,Correct,1.0,0.946067415730337,
3,22,73,B,56.9547328707568,35.485430669883094,2.84773664353784,0.5574038415098733,B,1134.8431240185164,Correct,sub_003_day_22_data.csv,1,445,,Dual-Task at home,6.0,5.0,small,big,False,Size,right,right,1512.238999013789,Correct,1.0,0.946067415730337,
3,22,74,B,49.75442007945118,28.030265974407584,2.487721003972559,0.4402983883168341,B,801.798916014377,Correct,sub_003_day_22_data.csv,1,445,,Dual-Task at home,2.0,5.0,big,small,False,Size,left,left,699.759165989235,Correct,1.0,0.946067415730337,
3,22,75,A,31.644210855394537,43.40819874958198,1.5822105427697268,0.6818543914862619,A,731.89066600753,Correct,sub_003_day_22_data.csv,1,445,,Dual-Task at home,8.0,2.0,big,small,True,Size,left,left,2525.035581958946,Correct,1.0,0.946067415730337,
3,22,76,A,11.681473262841564,36.711815208586515,0.5840736631420782,0.5766678447962071,A,615.4822909738868,Correct,sub_003_day_22_data.csv,1,445,,Dual-Task at home,2.0,6.0,big,small,False,Value,right,right,1302.5990829919465,Correct,1.0,0.946067415730337,
3,22,77,A,59.58821655006064,81.67994143839825,2.9794108275030324,1.2830255198425824,A,931.15304101957,Correct,sub_003_day_22_data.csv,1,445,,Dual-Task at home,8.0,5.0,small,big,False,Size,right,right,934.4437490217388,Correct,1.0,0.946067415730337,
3,22,78,B,85.61197899416163,63.66313121085824,4.280598949708081,1.0000181265827766,B,550.6877910229377,Correct,sub_003_day_22_data.csv,1,445,,Dual-Task at home,3.0,6.0,big,small,False,Size,left,left,1847.867999051232,Correct,1.0,0.946067415730337,
3,22,79,A,55.293215076969474,63.11746505099378,2.764660753848474,0.9914468225870628,B,1852.509332005866,Incorrect,sub_003_day_22_data.csv,0,445,,Dual-Task at home,5.0,4.0,small,big,False,Size,right,right,4238.266916014254,Correct,1.0,0.946067415730337,
3,22,80,B,63.85442086108461,52.01674575022594,3.1927210430542305,0.8170771315627893,B,573.2795000076294,Correct,sub_003_day_22_data.csv,1,445,,Dual-Task at home,6.0,4.0,small,big,False,Size,right,right,1301.3690820080228,Correct,1.0,0.946067415730337,
3,22,81,A,68.99452850003824,83.8594750742433,3.4497264250019124,1.3172615541356956,A,608.3608330227435,Correct,sub_003_day_22_data.csv,1,445,,Dual-Task at home,2.0,3.0,big,small,False,Size,left,left,2320.81287400797,Correct,1.0,0.946067415730337,
3,22,82,A,16.021997312034685,45.69371614449226,0.8010998656017343,0.7177552147737709,A,657.7531659859233,Correct,sub_003_day_22_data.csv,1,445,,Dual-Task at home,3.0,7.0,big,small,False,Value,right,right,2473.93220802769,Correct,1.0,0.946067415730337,
3,22,83,A,49.87694221467631,80.40703706443651,2.4938471107338156,1.2630307846927795,A,1201.3309160247445,Correct,sub_003_day_22_data.csv,1,445,,Dual-Task at home,3.0,4.0,big,small,False,Value,right,right,1850.0214159721509,Correct,1.0,0.946067415730337,
3,22,84,A,35.26255733807656,56.40513635941393,1.7631278669038282,0.8860098100573268,A,681.9181659957394,Correct,sub_003_day_22_data.csv,1,445,,Dual-Task at home,3.0,4.0,big,small,False,Value,right,right,1511.2410410074517,Correct,1.0,0.946067415730337,
3,22,85,B,62.77900195560362,33.01275448893731,3.138950097780181,0.5185631348860447,B,549.1930000134744,Correct,sub_003_day_22_data.csv,1,445,,Dual-Task at home,3.0,8.0,big,small,False,Size,left,left,6043.560248974245,Correct,1.0,0.946067415730337,
3,22,86,A,55.09379453570238,73.28872374852313,2.7546897267851187,1.15121658059666,A,2339.4978329888545,Correct,sub_003_day_22_data.csv,1,445,,Dual-Task at home,8.0,4.0,small,big,False,Value,left,left,5154.170999012422,Correct,1.0,0.946067415730337,
3,22,87,A,35.972352928771954,47.60796036314784,1.7986176464385977,0.7478240926462966,A,1557.406790961977,Correct,sub_003_day_22_data.csv,1,445,,Dual-Task at home,4.0,7.0,big,small,False,Size,left,left,6101.075249025598,Correct,1.0,0.946067415730337,
3,22,88,A,67.14390153796285,86.91346234832632,3.3571950768981424,1.3652334740577752,A,632.5608739862218,Correct,sub_003_day_22_data.csv,1,445,,Dual-Task at home,8.0,7.0,small,big,False,Size,right,right,4325.878416013438,Correct,1.0,0.946067415730337,
3,22,89,A,34.15028658520663,49.24215879140502,1.7075143292603314,0.7734940215299002,A,910.5358739616348,Correct,sub_003_day_22_data.csv,1,445,,Dual-Task at home,5.0,7.0,big,small,False,Value,right,right,2468.2548319688067,Correct,1.0,0.946067415730337,
3,22,90,A,44.87080960274111,67.68304368004705,2.2435404801370553,1.0631627639891643,A,1055.4317909991369,Correct,sub_003_day_22_data.csv,1,445,,Dual-Task at home,3.0,2.0,small,big,False,Size,right,right,2110.5649159871973,Correct,1.0,0.946067415730337,
3,22,91,B,54.439689812639415,38.79607062838299,2.7219844906319706,0.6094072523713937,B,1306.3343740068376,Correct,sub_003_day_22_data.csv,1,445,,Dual-Task at home,8.0,4.0,small,big,False,Value,left,left,1941.5449159569107,Correct,1.0,0.946067415730337,
3,22,92,B,82.15974079264342,67.17610166782836,4.107987039632171,1.0551997374822533,B,1791.7472909903154,Correct,sub_003_day_22_data.csv,1,445,,Dual-Task at home,7.0,6.0,small,big,False,Value,left,left,2805.801457958296,Correct,1.0,0.946067415730337,
3,22,93,B,49.659864297306534,20.20944104617663,2.482993214865327,0.3174491576191226,B,1228.4799159970134,Correct,sub_003_day_22_data.csv,1,445,,Dual-Task at home,4.0,6.0,big,small,False,Value,right,right,3268.4799999697134,Correct,1.0,0.946067415730337,
3,22,94,B,49.80331656414136,38.64527956174325,2.490165828207068,0.6070386318354818,B,1067.3898319946602,Correct,sub_003_day_22_data.csv,1,445,,Dual-Task at home,8.0,4.0,small,big,False,Value,left,right,3421.6684569837525,Incorrect,0.0,0.946067415730337,
3,22,95,A,61.12461892145204,73.79977329645513,3.0562309460726023,1.159244128123678,A,1977.114998968318,Correct,sub_003_day_22_data.csv,1,445,,Dual-Task at home,8.0,7.0,small,big,False,Value,left,left,2465.375874948222,Correct,1.0,0.946067415730337,
3,22,96,B,63.61787373277034,47.786526216649456,3.180893686638517,0.7506289985140099,B,1306.4617070485838,Correct,sub_003_day_22_data.csv,1,445,,Dual-Task at home,7.0,3.0,big,small,True,Size,left,left,1373.9724569604732,Correct,1.0,0.946067415730337,
3,22,97,A,36.58078984161902,62.33574647491734,1.8290394920809512,0.9791676159081808,A,2298.632165999152,Correct,sub_003_day_22_data.csv,1,445,,Dual-Task at home,8.0,4.0,small,big,False,Size,right,left,1287.549666012637,Incorrect,0.0,0.946067415730337,
3,22,98,B,51.90126158396618,28.298372336257582,2.59506307919831,0.4445097932006773,B,2166.9819990056567,Correct,sub_003_day_22_data.csv,1,445,,Dual-Task at home,8.0,5.0,small,big,False,Size,right,right,1767.228625016287,Correct,1.0,0.946067415730337,
3,22,99,B,45.36753774063503,20.67377277088949,2.2683768870317516,0.3247428632950556,B,929.0132080204784,Correct,sub_003_day_22_data.csv,1,445,,Dual-Task at home,6.0,2.0,small,big,False,Value,left,left,878.0569999944419,Correct,1.0,0.946067415730337,
3,22,100,A,36.619165322747435,67.51521886431959,1.830958266137372,1.060526577948267,A,1243.798791023437,Correct,sub_003_day_22_data.csv,1,445,,Dual-Task at home,7.0,3.0,small,big,False,Value,left,left,873.5907489899546,Correct,1.0,0.946067415730337,
3,22,101,B,83.94988814976358,62.69340360651915,4.197494407488179,0.984785680993902,B,1177.3762489901856,Correct,sub_003_day_22_data.csv,1,445,,Dual-Task at home,6.0,3.0,small,big,False,Size,right,right,1589.2079990007917,Correct,1.0,0.946067415730337,
3,22,102,B,35.08303162185277,18.799530391196317,1.7541515810926385,0.295302332839602,B,799.002373998519,Correct,sub_003_day_22_data.csv,1,445,,Dual-Task at home,8.0,6.0,small,big,False,Size,right,right,828.9432069868781,Correct,1.0,0.946067415730337,
3,22,103,A,55.73046036780039,70.39425759343877,2.7865230183900196,1.1057504125522737,A,998.0789989931508,Correct,sub_003_day_22_data.csv,1,445,,Dual-Task at home,6.0,5.0,small,big,False,Value,left,left,3756.0896250070073,Correct,1.0,0.946067415730337,
3,22,104,A,22.581715450471943,44.08254064017042,1.1290857725235972,0.6924469291336645,A,724.0502490312792,Correct,sub_003_day_22_data.csv,1,445,,Dual-Task at home,8.0,3.0,small,big,False,Size,right,right,4057.995332055725,Correct,1.0,0.946067415730337,
3,22,105,A,27.8993351488146,43.80535752068458,1.39496675744073,0.6880929468742853,A,945.24916599039,Correct,sub_003_day_22_data.csv,1,445,,Dual-Task at home,6.0,8.0,big,small,False,Value,right,right,1437.6503740204498,Correct,1.0,0.946067415730337,
3,22,106,B,56.51702232554237,26.804241851127696,2.8258511162771187,0.4210400464227342,B,563.104999018833,Correct,sub_003_day_22_data.csv,1,445,,Dual-Task at home,5.0,6.0,big,small,False,Size,left,left,3003.498332982417,Correct,1.0,0.946067415730337,
3,22,107,A,44.39053129097281,76.07442221007261,2.2195265645486404,1.1949742297062615,A,1586.4608739502728,Correct,sub_003_day_22_data.csv,1,445,,Dual-Task at home,5.0,8.0,big,small,False,Size,left,left,918.036375020165,Correct,1.0,0.946067415730337,
3,22,108,A,37.96647522664628,50.13974668104781,1.898323761332314,0.787593299130165,A,1097.58270700695,Correct,sub_003_day_22_data.csv,1,445,,Dual-Task at home,4.0,6.0,big,small,False,Value,right,right,6634.979873953853,Correct,1.0,0.946067415730337,
3,22,109,B,38.830673325850086,16.31926674559768,1.941533666292504,0.2563424425997094,B,564.2193329986185,Correct,sub_003_day_22_data.csv,1,445,,Dual-Task at home,4.0,6.0,big,small,False,Value,right,right,1171.4067500433885,Correct,1.0,0.946067415730337,
3,22,110,B,72.57225658188518,54.301157629611495,3.6286128290942594,0.8529605894530442,B,792.5270000123419,Correct,sub_003_day_22_data.csv,1,445,,Dual-Task at home,3.0,5.0,big,small,False,Value,right,right,848.4724159934558,Correct,1.0,0.946067415730337,
3,22,111,B,61.89040015521147,29.52879846214745,3.0945200077605737,0.4638372815900801,B,1768.302998971194,Correct,sub_003_day_22_data.csv,1,445,,Dual-Task at home,3.0,8.0,big,small,False,Value,right,right,1349.8627910157666,Correct,1.0,0.946067415730337,
3,22,112,A,19.091053764348363,46.42547518576695,0.954552688217418,0.7292496589151033,A,737.5644569983706,Correct,sub_003_day_22_data.csv,1,445,,Dual-Task at home,4.0,3.0,small,big,False,Value,left,left,1035.1238749572076,Correct,1.0,0.946067415730337,
3,22,113,B,50.80623908196213,28.231664006655684,2.5403119540981067,0.4434619412096243,B,585.7980829896405,Correct,sub_003_day_22_data.csv,1,445,,Dual-Task at home,2.0,6.0,big,small,False,Value,right,right,1189.1336249536837,Correct,1.0,0.946067415730337,
3,22,114,A,34.83991851809572,54.72730708718995,1.741995925904786,0.859654529479343,A,908.7349580368028,Correct,sub_003_day_22_data.csv,1,445,,Dual-Task at home,6.0,8.0,big,small,False,Value,right,right,1056.9944569724612,Correct,1.0,0.946067415730337,
3,22,115,B,77.53585610328602,45.48733505513049,3.8767928051643015,0.714513388202877,B,540.5815410194919,Correct,sub_003_day_22_data.csv,1,445,,Dual-Task at home,7.0,3.0,small,big,False,Size,right,right,3053.651083027944,Correct,1.0,0.946067415730337,
3,22,116,A,28.75238637460403,54.80497241270551,1.4376193187302015,0.8608744935597347,A,537.2432909789495,Correct,sub_003_day_22_data.csv,1,445,,Dual-Task at home,4.0,6.0,big,small,False,Size,left,left,2045.9984579938464,Correct,1.0,0.946067415730337,
3,22,117,B,69.9805156307524,52.93383240186552,3.4990257815376196,0.8314826950002702,B,676.6575830406509,Correct,sub_003_day_22_data.csv,1,445,,Dual-Task at home,6.0,7.0,small,big,True,Value,right,right,3403.3209159970284,Correct,1.0,0.946067415730337,
3,22,118,A,28.36918035976833,55.22475348574139,1.4184590179884164,0.8674683992355624,A,479.3343330384232,Correct,sub_003_day_22_data.csv,1,445,,Dual-Task at home,2.0,3.0,big,small,False,Value,right,right,3060.3013330255635,Correct,1.0,0.946067415730337,
3,22,119,A,63.47672730016352,74.14004873462709,3.173836365008176,1.1645891622074689,A,1160.034500004258,Correct,sub_003_day_22_data.csv,1,445,,Dual-Task at home,7.0,8.0,big,small,False,Value,right,right,1428.348874032963,Correct,1.0,0.946067415730337,
3,22,120,A,13.391179649591596,37.97264285735889,0.6695589824795798,0.5964728791903382,A,616.5604159468785,Correct,sub_003_day_22_data.csv,1,445,,Dual-Task at home,7.0,4.0,small,big,False,Size,right,right,3869.2188329878263,Correct,1.0,0.946067415730337,
3,22,121,B,68.10010976441941,58.83038483904251,3.405005488220971,0.9241055240909816,B,921.2627080269158,Correct,sub_003_day_22_data.csv,1,445,,Dual-Task at home,7.0,5.0,big,small,True,Value,left,left,995.80270802835,Correct,1.0,0.946067415730337,
3,22,122,B,43.00468512743754,25.312497881915505,2.150234256371877,0.3976077869491646,B,562.8442080342211,Correct,sub_003_day_22_data.csv,1,445,,Dual-Task at home,4.0,7.0,big,small,False,Value,right,right,1821.3044579606503,Correct,1.0,0.946067415730337,
3,22,123,A,37.344960864491554,68.10614442105155,1.8672480432245775,1.0698088148875051,A,562.0126239955425,Correct,sub_003_day_22_data.csv,1,445,,Dual-Task at home,5.0,3.0,small,big,False,Value,left,left,1348.4138330095448,Correct,1.0,0.946067415730337,
3,22,124,B,42.74485411060829,32.531707167299075,2.137242705530414,0.511006861227606,B,2313.9177070115693,Correct,sub_003_day_22_data.csv,1,445,,Dual-Task at home,6.0,7.0,big,small,False,Value,right,right,1858.2539570052177,Correct,1.0,0.946067415730337,
3,22,125,A,17.598562930217934,37.66145984048918,0.8799281465108968,0.591584827791739,A,836.2409159890376,Correct,sub_003_day_22_data.csv,1,445,,Dual-Task at home,8.0,7.0,small,big,False,Value,left,left,3033.581583003979,Correct,1.0,0.946067415730337,
3,22,126,B,75.89368651900988,63.62080239452664,3.7946843259504934,0.999353227090664,B,2536.6482490208,Correct,sub_003_day_22_data.csv,1,445,,Dual-Task at home,8.0,3.0,small,big,False,Value,left,left,1573.895207955502,Correct,1.0,0.946067415730337,
3,22,127,A,60.19764370078798,71.22040579849295,3.009882185039399,1.118727518211147,A,1017.8596240002662,Correct,sub_003_day_22_data.csv,1,445,,Dual-Task at home,6.0,2.0,small,big,False,Size,right,right,1664.0357070136815,Correct,1.0,0.946067415730337,
3,22,128,A,38.929166624848754,64.00003142522223,1.9464583312424375,1.0053101427749702,A,1040.359458012972,Correct,sub_003_day_22_data.csv,1,445,,Dual-Task at home,6.0,4.0,small,big,False,Size,right,right,1640.122998971492,Correct,1.0,0.946067415730337,
3,22,129,B,73.03426432308737,60.66684340214542,3.6517132161543686,0.9529525477433124,B,2346.420083020348,Correct,sub_003_day_22_data.csv,1,445,,Dual-Task at home,4.0,6.0,big,small,False,Size,left,left,2763.767915952485,Correct,1.0,0.946067415730337,
3,22,130,B,60.81355084819776,47.5617910500807,3.0406775424098877,0.7470988667725316,B,1140.0597490137443,Correct,sub_003_day_22_data.csv,1,445,,Dual-Task at home,7.0,5.0,small,big,False,Value,left,left,1710.6083740363829,Correct,1.0,0.946067415730337,
3,22,131,B,60.53308513679893,35.95958384419407,3.026654256839946,0.5648518221553316,B,688.0745000089519,Correct,sub_003_day_22_data.csv,1,445,,Dual-Task at home,8.0,7.0,small,big,False,Size,right,right,2126.2765409774147,Correct,1.0,0.946067415730337,
3,22,132,A,30.715988520398913,56.93564558797656,1.5357994260199457,0.8943430295328965,A,768.5560819809325,Correct,sub_003_day_22_data.csv,1,445,,Dual-Task at home,5.0,4.0,small,big,False,Size,right,right,1080.5617079604417,Correct,1.0,0.946067415730337,
3,22,133,B,69.00585527858404,55.34109299624759,3.450292763929202,0.8692958559932049,B,755.5533329723403,Correct,sub_003_day_22_data.csv,1,445,,Dual-Task at home,8.0,6.0,small,big,False,Size,right,right,837.3587499954738,Correct,1.0,0.946067415730337,
3,22,134,B,57.01927238827085,34.55233376869992,2.8509636194135424,0.5427467896606509,B,566.3304990157485,Correct,sub_003_day_22_data.csv,1,445,,Dual-Task at home,6.0,7.0,big,small,False,Size,left,left,1101.6794999595731,Correct,1.0,0.946067415730337,
3,22,135,B,36.65261721491033,23.237850663209414,1.8326308607455164,0.3650193046437771,B,709.4196240068413,Correct,sub_003_day_22_data.csv,1,445,,Dual-Task at home,6.0,8.0,small,big,True,Size,right,right,1267.9951240424998,Correct,1.0,0.946067415730337,
3,22,136,B,74.10041030352308,62.25338505346703,3.7050205151761535,0.9778738857253432,B,567.2591240145266,Correct,sub_003_day_22_data.csv,1,445,,Dual-Task at home,5.0,8.0,big,small,False,Value,right,right,1746.5068739838898,Correct,1.0,0.946067415730337,
3,22,137,B,68.17153545891112,46.86644450310639,3.4085767729455565,0.736176388754164,B,1276.4142490341328,Correct,sub_003_day_22_data.csv,1,445,,Dual-Task at home,7.0,2.0,small,big,False,Size,right,right,1694.4772079586985,Correct,1.0,0.946067415730337,
3,22,138,A,19.25302060114718,50.00015871591532,0.9626510300573592,0.7854006565012163,A,720.538082998246,Correct,sub_003_day_22_data.csv,1,445,,Dual-Task at home,2.0,7.0,big,small,False,Value,right,right,3558.6316660046577,Correct,1.0,0.946067415730337,
3,22,139,A,58.3039402997016,86.25592303749073,2.9151970149850803,1.3549048707159377,A,476.5252079814673,Correct,sub_003_day_22_data.csv,1,445,,Dual-Task at home,7.0,3.0,small,big,False,Size,right,right,1523.189708008431,Correct,1.0,0.946067415730337,
3,22,140,A,31.856830304380825,42.658081246148754,1.5928415152190414,0.6700715732956873,B,856.9280820083804,Incorrect,sub_003_day_22_data.csv,0,445,,Dual-Task at home,3.0,4.0,big,small,False,Value,right,right,3065.595873980783,Correct,1.0,0.946067415730337,
3,22,141,B,60.70378608290185,51.82452957976654,3.0351893041450926,0.8140578070177074,B,804.2620409978554,Correct,sub_003_day_22_data.csv,1,445,,Dual-Task at home,8.0,4.0,small,big,False,Size,right,right,1470.9358330001123,Correct,1.0,0.946067415730337,
3,22,142,A,28.51986437537014,43.744895349047454,1.425993218768507,0.6871432093031089,A,781.2219579936936,Correct,sub_003_day_22_data.csv,1,445,,Dual-Task at home,8.0,2.0,small,big,False,Value,left,left,4534.2744999798015,Correct,1.0,0.946067415730337,
3,22,143,B,42.06590864171446,17.67704470446547,2.103295432085723,0.2776703689036354,B,927.3858749656938,Correct,sub_003_day_22_data.csv,1,445,,Dual-Task at home,5.0,3.0,big,small,True,Size,left,left,1962.764458032325,Correct,1.0,0.946067415730337,
3,22,144,B,63.639479765077525,56.152347925367735,3.181973988253876,0.8820390186207668,B,741.2864160141908,Correct,sub_003_day_22_data.csv,1,445,,Dual-Task at home,6.0,7.0,big,small,False,Size,left,left,3059.1230830177665,Correct,1.0,0.946067415730337,
3,22,145,A,41.3644891365817,59.1948617593454,2.068224456829085,0.9298307141671144,A,1014.9237909936346,Correct,sub_003_day_22_data.csv,1,445,,Dual-Task at home,2.0,8.0,big,small,False,Value,right,right,1577.041166019626,Correct,1.0,0.946067415730337,
3,22,146,B,59.08367321537776,42.99040989872567,2.954183660768888,0.6752917795632526,B,864.07083197264,Correct,sub_003_day_22_data.csv,1,445,,Dual-Task at home,6.0,2.0,big,small,True,Size,left,left,1276.254708005581,Correct,1.0,0.946067415730337,
3,22,147,A,50.78519627563609,65.51398860221477,2.5392598137818045,1.029091326500417,A,1435.4610820300877,Correct,sub_003_day_22_data.csv,1,445,,Dual-Task at home,2.0,5.0,small,big,True,Value,right,right,934.2199579696172,Correct,1.0,0.946067415730337,
3,22,148,A,40.98267691774087,49.29113698140074,2.0491338458870434,0.7742633691392838,A,896.2649989989586,Correct,sub_003_day_22_data.csv,1,445,,Dual-Task at home,5.0,7.0,big,small,False,Value,right,right,2789.9230829789303,Correct,1.0,0.946067415730337,
3,22,149,A,46.77279889862939,73.34018356887356,2.3386399449314696,1.1520249095645,A,700.416166044306,Correct,sub_003_day_22_data.csv,1,445,,Dual-Task at home,4.0,3.0,big,small,True,Value,left,left,2142.774083011318,Correct,1.0,0.946067415730337,
3,22,150,A,28.591551828801204,42.03277413336713,1.42957759144006,0.6602492721369262,A,805.801332986448,Correct,sub_003_day_22_data.csv,1,445,,Dual-Task at home,5.0,2.0,small,big,False,Size,right,right,1435.2615819661878,Correct,1.0,0.946067415730337,
3,22,151,A,32.134992499761545,53.5284062727528,1.6067496249880773,0.8408222395242501,A,707.6111240312457,Correct,sub_003_day_22_data.csv,1,445,,Dual-Task at home,5.0,3.0,big,small,True,Size,left,left,1058.819499972742,Correct,1.0,0.946067415730337,
3,22,152,A,18.66467517132478,37.554471954567944,0.933233758566239,0.5899042660095728,A,757.1336239925586,Correct,sub_003_day_22_data.csv,1,445,,Dual-Task at home,6.0,8.0,small,big,True,Value,right,right,1522.8434160235338,Correct,1.0,0.946067415730337,
3,22,153,A,35.323468141270254,67.15327584451047,1.766173407063513,1.054841190288015,A,592.1698739985004,Correct,sub_003_day_22_data.csv,1,445,,Dual-Task at home,2.0,6.0,big,small,False,Size,left,left,873.3685410115868,Correct,1.0,0.946067415730337,
3,22,154,A,36.57334495527845,53.33188185277287,1.8286672477639223,0.8377352411539501,A,433.4146659821272,Correct,sub_003_day_22_data.csv,1,445,,Dual-Task at home,8.0,4.0,small,big,False,Size,right,right,1945.3583739814349,Correct,1.0,0.946067415730337,
3,22,155,A,27.166463675955463,54.93443923522406,1.3583231837977732,0.8629081536522741,A,525.6757910246961,Correct,sub_003_day_22_data.csv,1,445,,Dual-Task at home,5.0,6.0,big,small,False,Value,right,right,741.2857490126044,Correct,1.0,0.946067415730337,
3,22,156,B,75.0009159365781,49.94727528645927,3.750045796828905,0.7845699655338374,B,640.5039160163142,Correct,sub_003_day_22_data.csv,1,445,,Dual-Task at home,5.0,6.0,big,small,False,Value,right,right,863.0856659729034,Correct,1.0,0.946067415730337,
3,22,157,B,56.944475748359395,38.16977778625838,2.84722378741797,0.599569467412321,B,451.3734580250457,Correct,sub_003_day_22_data.csv,1,445,,Dual-Task at home,3.0,8.0,big,small,False,Size,left,left,874.386208015494,Correct,1.0,0.946067415730337,
3,22,158,A,29.683740805392617,61.12740268821234,1.4841870402696309,0.9601869960915644,A,665.6373749719933,Correct,sub_003_day_22_data.csv,1,445,,Dual-Task at home,3.0,8.0,big,small,False,Size,left,left,1325.3882490098476,Correct,1.0,0.946067415730337,
3,22,159,B,42.67851735076326,34.42053637310575,2.1339258675381627,0.5406765210118464,B,446.3768740533851,Correct,sub_003_day_22_data.csv,1,445,,Dual-Task at home,7.0,3.0,small,big,False,Value,left,left,1163.569707015995,Correct,1.0,0.946067415730337,
3,22,160,B,41.57544034384033,31.898849618700577,2.0787720171920165,0.5010659581003765,B,1214.311457995791,Correct,sub_003_day_22_data.csv,1,445,,Dual-Task at home,6.0,8.0,big,small,False,Size,left,left,1818.9553740085105,Correct,1.0,0.946067415730337,
3,22,161,A,26.84185694579128,59.182926681208016,1.342092847289564,0.9296432383981325,A,551.6677080304362,Correct,sub_003_day_22_data.csv,1,445,,Dual-Task at home,5.0,3.0,big,small,True,Value,left,left,1747.2349159652367,Correct,1.0,0.946067415730337,
3,22,162,B,70.7280051941786,49.847451270332094,3.5364002597089303,0.7830019335552524,B,511.1200829851441,Correct,sub_003_day_22_data.csv,1,445,,Dual-Task at home,8.0,4.0,small,big,False,Size,right,right,1126.4114570221864,Correct,1.0,0.946067415730337,
3,22,163,A,27.21208531435142,51.255270467247186,1.360604265717571,0.8051159057883082,A,766.482790990267,Correct,sub_003_day_22_data.csv,1,445,,Dual-Task at home,8.0,7.0,big,small,True,Value,left,left,1650.2284160233105,Correct,1.0,0.946067415730337,
3,22,164,A,26.374135238167877,47.53992917999349,1.318706761908394,0.7467554613202331,A,922.918249038048,Correct,sub_003_day_22_data.csv,1,445,,Dual-Task at home,8.0,3.0,small,big,False,Value,left,left,1929.8802909906951,Correct,1.0,0.946067415730337,
3,22,165,A,33.81544712663358,50.82668200685324,1.690772356331679,0.7983836539953733,A,773.8575410330668,Correct,sub_003_day_22_data.csv,1,445,,Dual-Task at home,3.0,5.0,big,small,False,Value,right,right,831.5337490057573,Correct,1.0,0.946067415730337,
3,22,166,B,57.920659034627256,42.61808401362336,2.896032951731363,0.6694432982363587,B,536.7267080000602,Correct,sub_003_day_22_data.csv,1,445,,Dual-Task at home,5.0,8.0,big,small,False,Value,right,right,933.640123985242,Correct,1.0,0.946067415730337,
3,22,167,A,40.86873991186829,55.61777023255404,2.043436995593414,0.8736418918581843,A,1350.3808330278844,Correct,sub_003_day_22_data.csv,1,445,,Dual-Task at home,3.0,4.0,big,small,False,Value,right,right,849.5580000453629,Correct,1.0,0.946067415730337,
3,22,168,B,71.04244239368222,44.435998513091455,3.5521221196841113,0.6979990324182754,B,483.36487397318706,Correct,sub_003_day_22_data.csv,1,445,,Dual-Task at home,2.0,8.0,big,small,False,Size,left,left,501.1017069919035,Correct,1.0,0.946067415730337,
3,22,169,B,77.0837591043884,63.79214219503969,3.85418795521942,1.0020446263834608,B,1455.9485409990884,Correct,sub_003_day_22_data.csv,1,445,,Dual-Task at home,7.0,5.0,small,big,False,Size,right,right,650.1190409762785,Correct,1.0,0.946067415730337,
3,22,170,A,62.61422681377248,78.69277034151793,3.130711340688624,1.2361031459777074,A,597.5059579941444,Correct,sub_003_day_22_data.csv,1,445,,Dual-Task at home,4.0,7.0,big,small,False,Value,right,right,851.6025409917347,Correct,1.0,0.946067415730337,
3,22,171,A,31.325434612120432,63.61356546571052,1.5662717306060217,0.9992395496786476,A,525.8936239988543,Correct,sub_003_day_22_data.csv,1,445,,Dual-Task at home,3.0,5.0,small,big,True,Size,right,right,734.7439579898492,Correct,1.0,0.946067415730337,
3,22,172,B,77.14527856623874,50.81592383801832,3.857263928311937,0.7982146650744839,B,481.01679095998406,Correct,sub_003_day_22_data.csv,1,445,,Dual-Task at home,7.0,2.0,small,big,False,Size,right,right,427.056041022297,Correct,1.0,0.946067415730337,
3,22,173,A,19.284406551642157,32.91923124403609,0.9642203275821076,0.5170940751904368,A,1598.648999002762,Correct,sub_003_day_22_data.csv,1,445,,Dual-Task at home,8.0,4.0,big,small,True,Value,left,left,790.7633750000969,Correct,1.0,0.946067415730337,
3,22,174,A,49.68479717670148,68.02212251309335,2.484239858835074,1.0684890018435949,A,506.3349159900099,Correct,sub_003_day_22_data.csv,1,445,,Dual-Task at home,3.0,2.0,small,big,False,Value,left,left,1234.1424159822054,Correct,1.0,0.946067415730337,
3,22,175,A,12.41249952441104,36.630802804976774,0.620624976220552,0.5753953049360571,A,637.2295410255902,Correct,sub_003_day_22_data.csv,1,445,,Dual-Task at home,4.0,6.0,big,small,False,Value,right,right,1174.2763319634832,Correct,1.0,0.946067415730337,
3,22,176,A,55.67684841090937,64.87440111477241,2.7838424205454686,1.0190447097410325,A,767.4410410108976,Correct,sub_003_day_22_data.csv,1,445,,Dual-Task at home,6.0,8.0,big,small,False,Value,right,right,1064.9390409816988,Correct,1.0,0.946067415730337,
3,22,177,B,55.21098159588965,30.856874157000973,2.7605490797944823,0.484698645821895,B,1142.8264999995008,Correct,sub_003_day_22_data.csv,1,445,,Dual-Task at home,2.0,3.0,big,small,False,Size,left,left,698.619666043669,Correct,1.0,0.946067415730337,
3,22,178,B,53.26436449176027,22.06582112176577,2.6632182245880136,0.3466091076578291,B,967.2382079879752,Correct,sub_003_day_22_data.csv,1,445,,Dual-Task at home,4.0,6.0,big,small,False,Value,right,right,2256.724874023348,Correct,1.0,0.946067415730337,
3,22,179,B,46.87563421567253,39.78172803898645,2.3437817107836265,0.6248899227719344,B,894.1965409903787,Correct,sub_003_day_22_data.csv,1,445,,Dual-Task at home,8.0,4.0,small,big,False,Value,left,left,3674.6828739997,Correct,1.0,0.946067415730337,
3,22,180,B,63.66484927084984,34.0759396372344,3.1832424635424923,0.535263608142524,B,452.2533739800565,Correct,sub_003_day_22_data.csv,1,445,,Dual-Task at home,5.0,3.0,big,small,True,Value,left,left,1341.3687080028467,Correct,1.0,0.946067415730337,
3,22,181,B,73.33833398005582,47.36320314065905,3.6669166990027913,0.7439794551858774,B,486.3648739992641,Correct,sub_003_day_22_data.csv,1,445,,Dual-Task at home,7.0,5.0,small,big,False,Value,left,left,2667.282082955353,Correct,1.0,0.946067415730337,
3,22,182,A,41.2536941726941,55.57623739863557,2.062684708634705,0.8729894956285792,A,1056.6388330189511,Correct,sub_003_day_22_data.csv,1,445,,Dual-Task at home,5.0,7.0,small,big,True,Value,right,right,1375.608666043263,Correct,1.0,0.946067415730337,
3,22,183,B,48.5755353544277,39.41898266490211,2.428776767721385,0.6191919317601993,B,991.4415829698556,Correct,sub_003_day_22_data.csv,1,445,,Dual-Task at home,4.0,2.0,small,big,False,Size,right,right,1083.972749998793,Correct,1.0,0.946067415730337,
3,22,184,B,79.80645734807172,48.31320381877619,3.9903228674035858,0.758902030942268,B,433.76662401715294,Correct,sub_003_day_22_data.csv,1,445,,Dual-Task at home,5.0,8.0,big,small,False,Size,left,left,4485.337999009062,Correct,1.0,0.946067415730337,
3,22,185,A,49.72277957395021,75.0043943607627,2.4861389786975105,1.178166271553619,A,610.1138740195893,Correct,sub_003_day_22_data.csv,1,445,,Dual-Task at home,5.0,8.0,big,small,False,Size,left,left,925.7647910271772,Correct,1.0,0.946067415730337,
3,22,186,A,31.579506165430693,47.76818496778143,1.5789753082715348,0.7503408948505026,A,566.0189999616705,Correct,sub_003_day_22_data.csv,1,445,,Dual-Task at home,6.0,4.0,small,big,False,Value,left,left,1910.4229579679668,Correct,1.0,0.946067415730337,
3,22,187,A,43.34485403384895,66.95170899495646,2.167242701692447,1.0516749856191845,A,712.0484579936601,Correct,sub_003_day_22_data.csv,1,445,,Dual-Task at home,7.0,2.0,small,big,False,Size,right,right,1085.667375009507,Correct,1.0,0.946067415730337,
3,22,188,B,76.44575687417719,50.58082278609648,3.822287843708859,0.7945217063866395,B,611.1763319931924,Correct,sub_003_day_22_data.csv,1,445,,Dual-Task at home,4.0,8.0,small,big,True,Value,right,right,2992.8807070245966,Correct,1.0,0.946067415730337,
3,22,189,A,48.43175440950445,69.05023349137653,2.4215877204752223,1.0846385313258418,A,481.6654159803875,Correct,sub_003_day_22_data.csv,1,445,,Dual-Task at home,3.0,2.0,small,big,False,Size,right,right,973.5198330017738,Correct,1.0,0.946067415730337,
3,22,190,B,64.39039509085575,31.536079853250783,3.2195197545427874,0.4953675839499687,B,856.8403739482164,Correct,sub_003_day_22_data.csv,1,445,,Dual-Task at home,5.0,3.0,small,big,False,Size,right,right,1482.120998960454,Correct,1.0,0.946067415730337,
3,22,191,A,37.175632001647955,61.35969882810523,1.8587816000823976,0.9638358953242884,A,1475.0287070055492,Correct,sub_003_day_22_data.csv,1,445,,Dual-Task at home,2.0,3.0,big,small,False,Value,right,right,3827.213332988322,Correct,1.0,0.946067415730337,
3,22,192,B,72.740887611778,55.33506531161989,3.6370443805889,0.8692011733444821,B,2792.1787910163403,Correct,sub_003_day_22_data.csv,1,445,,Dual-Task at home,6.0,3.0,small,big,False,Value,left,left,1722.339749976527,Correct,1.0,0.946067415730337,
3,22,193,A,28.84914758294435,50.58408470087888,1.4424573791472175,0.7945729444242247,A,2401.7766659962945,Correct,sub_003_day_22_data.csv,1,445,,Dual-Task at home,2.0,7.0,small,big,True,Size,right,right,4961.547208018601,Correct,1.0,0.946067415730337,
3,22,194,A,50.706880121789666,78.39050500021972,2.535344006089483,1.231355173099421,A,1056.8330829846673,Correct,sub_003_day_22_data.csv,1,445,,Dual-Task at home,8.0,6.0,small,big,False,Size,right,left,2882.1279570111074,Incorrect,0.0,0.946067415730337,
3,22,195,B,72.83608909043619,43.4009386227589,3.6418044545218096,0.6817403496808043,B,494.458915956784,Correct,sub_003_day_22_data.csv,1,445,,Dual-Task at home,4.0,5.0,big,small,False,Value,right,right,6228.917457978241,Correct,1.0,0.946067415730337,
3,22,196,A,53.060105680150315,70.81728933039244,2.6530052840075156,1.1123953795375188,A,523.1359989847988,Correct,sub_003_day_22_data.csv,1,445,,Dual-Task at home,4.0,6.0,small,big,True,Value,right,right,762.1171250357293,Correct,1.0,0.946067415730337,
3,22,197,A,48.150727409690234,57.63197220071976,2.407536370484512,0.905280902388362,B,707.6862080139108,Incorrect,sub_003_day_22_data.csv,0,445,,Dual-Task at home,7.0,4.0,small,big,False,Value,left,left,2149.5991660049185,Correct,1.0,0.946067415730337,
3,22,198,B,72.73679745308011,48.303024646999354,3.6368398726540057,0.7587421368858994,B,538.7572079780512,Correct,sub_003_day_22_data.csv,1,445,,Dual-Task at home,4.0,8.0,big,small,False,Size,left,left,1724.9173750169575,Correct,1.0,0.946067415730337,
3,22,199,B,39.70211654002556,20.193606340926653,1.9851058270012776,0.3172004266506971,B,1526.8732910044491,Correct,sub_003_day_22_data.csv,1,445,,Dual-Task at home,2.0,7.0,big,small,False,Value,right,left,1583.5716659785248,Incorrect,0.0,0.946067415730337,
3,22,200,A,11.983267179208504,31.097112001553047,0.5991633589604252,0.4884722930596902,A,710.618290991988,Correct,sub_003_day_22_data.csv,1,445,,Dual-Task at home,2.0,7.0,big,small,False,Value,right,right,2156.901333015412,Correct,1.0,0.946067415730337,
3,22,201,A,35.43981798725328,52.35674743384568,1.771990899362664,0.8224178655201292,A,593.9141240087338,Correct,sub_003_day_22_data.csv,1,445,,Dual-Task at home,4.0,7.0,small,big,True,Value,right,right,560.6374989729375,Correct,1.0,0.946067415730337,
3,22,202,B,61.38160533522,44.94411098453475,3.069080266761,0.7059804444556935,B,507.2572909994051,Correct,sub_003_day_22_data.csv,1,445,,Dual-Task at home,6.0,5.0,small,big,False,Size,right,right,1265.9557909937575,Correct,1.0,0.946067415730337,
3,22,203,B,66.90021052800857,51.95277722101711,3.345010526400429,0.8160723162556724,B,681.6861240076832,Correct,sub_003_day_22_data.csv,1,445,,Dual-Task at home,3.0,4.0,big,small,False,Size,left,left,2227.516707032919,Correct,1.0,0.946067415730337,
3,22,204,A,21.249708703321996,37.96898916142696,1.0624854351661,0.5964154870688472,A,811.189915984869,Correct,sub_003_day_22_data.csv,1,445,,Dual-Task at home,5.0,4.0,small,big,False,Size,right,right,1928.3328739693388,Correct,1.0,0.946067415730337,
3,22,205,A,41.18815494899702,73.1153652414182,2.0594077474498507,1.1484934715348698,A,533.8693740195595,Correct,sub_003_day_22_data.csv,1,445,,Dual-Task at home,3.0,5.0,big,small,False,Size,left,left,2923.690499039367,Correct,1.0,0.946067415730337,
3,22,206,B,79.65074665371938,67.53498552704926,3.9825373326859688,1.0608370719603548,B,771.7396660009399,Correct,sub_003_day_22_data.csv,1,445,,Dual-Task at home,5.0,3.0,small,big,False,Size,right,right,2996.5299580362625,Correct,1.0,0.946067415730337,
3,22,207,B,44.62502819359225,33.689887159005266,2.2312514096796123,0.5291995099950003,B,628.3341660164297,Correct,sub_003_day_22_data.csv,1,445,,Dual-Task at home,6.0,5.0,small,big,False,Size,right,right,3245.7314989878796,Correct,1.0,0.946067415730337,
3,22,208,A,32.022276682366765,46.005280294721246,1.6011138341183382,0.7226492530011777,A,877.1978740114719,Correct,sub_003_day_22_data.csv,1,445,,Dual-Task at home,4.0,6.0,small,big,True,Size,right,right,403.8864569738507,Correct,1.0,0.946067415730337,
3,22,209,A,31.745860723501956,50.71827411067103,1.5872930361750976,0.7966807867441875,A,558.7946660234593,Correct,sub_003_day_22_data.csv,1,445,,Dual-Task at home,8.0,3.0,small,big,False,Size,right,right,1914.776831981726,Correct,1.0,0.946067415730337,
3,22,210,B,65.8950215773917,51.40586982422195,3.2947510788695853,0.8074815149558445,B,551.1472909711301,Correct,sub_003_day_22_data.csv,1,445,,Dual-Task at home,4.0,8.0,big,small,False,Size,left,left,2902.40066597471,Correct,1.0,0.946067415730337,
3,22,211,B,83.07963629135418,58.455750630757585,4.153981814567709,0.9182207837083248,B,496.2631239905022,Correct,sub_003_day_22_data.csv,1,445,,Dual-Task at home,5.0,2.0,small,big,False,Size,right,right,1847.5954990135504,Correct,1.0,0.946067415730337,
3,22,212,A,36.683534790332146,58.70314741810881,1.834176739516607,0.9221068833566464,A,666.5475409827195,Correct,sub_003_day_22_data.csv,1,445,,Dual-Task at home,3.0,8.0,big,small,False,Size,left,left,3516.663749003783,Correct,1.0,0.946067415730337,
3,22,213,B,48.03311029807023,31.618604727225843,2.4016555149035113,0.4966638816390611,B,665.3435410116799,Correct,sub_003_day_22_data.csv,1,445,,Dual-Task at home,5.0,2.0,small,big,False,Value,left,left,1694.5126660284586,Correct,1.0,0.946067415730337,
3,22,214,A,48.79030305630091,69.12837252395434,2.439515152815045,1.0858659363793677,A,1433.3553740289062,Correct,sub_003_day_22_data.csv,1,445,,Dual-Task at home,8.0,7.0,small,big,False,Size,right,right,3977.241124026478,Correct,1.0,0.946067415730337,
3,22,215,A,28.637105124091494,46.524949218455745,1.431855256204575,0.7308121933666938,A,1218.561707995832,Correct,sub_003_day_22_data.csv,1,445,,Dual-Task at home,8.0,5.0,small,big,False,Value,left,left,909.4990830053576,Correct,1.0,0.946067415730337,
3,22,216,A,28.73404831798151,45.05021855746921,1.4367024158990755,0.7076471783137992,A,425.4134999937378,Correct,sub_003_day_22_data.csv,1,445,,Dual-Task at home,6.0,2.0,big,small,True,Size,left,right,1612.6191660296172,Incorrect,0.0,0.946067415730337,
3,22,217,B,83.96918955839439,53.74673321110372,4.1984594779197195,0.8442517110522699,B,528.2655819901265,Correct,sub_003_day_22_data.csv,1,445,,Dual-Task at home,2.0,6.0,big,small,False,Size,left,left,1691.224875045009,Correct,1.0,0.946067415730337,
3,22,218,B,42.290269939099645,34.26508574489003,2.114513496954982,0.5382347082538543,B,1494.179791014176,Correct,sub_003_day_22_data.csv,1,445,,Dual-Task at home,7.0,6.0,small,big,False,Size,right,right,4611.611748987343,Correct,1.0,0.946067415730337,
3,22,219,B,44.09464047817394,24.784014655581565,2.204732023908697,0.389306391842184,B,470.575415994972,Correct,sub_003_day_22_data.csv,1,445,,Dual-Task at home,3.0,2.0,small,big,False,Size,right,right,2059.650082956068,Correct,1.0,0.946067415730337,
3,22,220,B,38.39786904323745,19.360214116400208,1.9198934521618725,0.3041095322000415,B,607.7510819886811,Correct,sub_003_day_22_data.csv,1,445,,Dual-Task at home,8.0,7.0,small,big,False,Size,right,right,1803.6274160258472,Correct,1.0,0.946067415730337,
3,22,221,B,49.48142301028241,37.94773084906387,2.4740711505141206,0.5960815622791091,B,687.1980829746462,Correct,sub_003_day_22_data.csv,1,445,,Dual-Task at home,5.0,6.0,small,big,True,Value,right,left,2590.2808319660835,Incorrect,0.0,0.946067415730337,
3,22,222,B,52.34747015589158,44.12734376927213,2.6173735077945786,0.6931506950398834,B,531.2337490031496,Correct,sub_003_day_22_data.csv,1,445,,Dual-Task at home,4.0,5.0,big,small,False,Size,left,left,1834.0935410233217,Correct,1.0,0.946067415730337,
3,22,223,B,74.51504637196983,56.06268571512129,3.725752318598491,0.8806306079156924,B,610.2551659569144,Correct,sub_003_day_22_data.csv,1,445,,Dual-Task at home,5.0,7.0,big,small,False,Value,right,right,1971.2293329648671,Correct,1.0,0.946067415730337,
3,22,224,A,41.89028269995663,70.09053890702494,2.0945141349978313,1.100979610582295,A,600.5875410046428,Correct,sub_003_day_22_data.csv,1,445,,Dual-Task at home,6.0,8.0,big,small,False,Size,left,left,2052.6665819925256,Correct,1.0,0.946067415730337,
3,22,225,B,84.17243304432051,69.19924924657302,4.208621652216026,1.086979265334814,B,665.8687489689328,Correct,sub_003_day_22_data.csv,1,445,,Dual-Task at home,4.0,7.0,big,small,False,Size,left,left,964.2746250028722,Correct,1.0,0.946067415730337,
3,22,226,B,81.64353129627655,57.049961565473986,4.082176564813827,0.8961387007083657,B,705.7674159877934,Correct,sub_003_day_22_data.csv,1,445,,Dual-Task at home,5.0,4.0,small,big,False,Size,right,right,2875.7092069718055,Correct,1.0,0.946067415730337,
3,22,227,B,32.72565894844965,18.292943831443505,1.6362829474224825,0.2873448897669681,B,769.1501660156064,Correct,sub_003_day_22_data.csv,1,445,,Dual-Task at home,8.0,3.0,small,big,False,Value,left,left,2517.20383198699,Correct,1.0,0.946067415730337,
3,22,228,A,50.95432145598644,81.39821882713039,2.547716072799322,1.2786002314130362,A,604.998082970269,Correct,sub_003_day_22_data.csv,1,445,,Dual-Task at home,5.0,7.0,small,big,True,Value,right,right,1782.1108330390416,Correct,1.0,0.946067415730337,
3,22,229,A,60.30250136109761,79.88243073786434,3.01512506805488,1.2547902877848502,A,825.681498972699,Correct,sub_003_day_22_data.csv,1,445,,Dual-Task at home,5.0,6.0,big,small,False,Value,right,right,984.2448330018668,Correct,1.0,0.946067415730337,
3,22,230,B,56.748914265939945,29.43972552794174,2.8374457132969972,0.4624381272114083,B,766.547332983464,Correct,sub_003_day_22_data.csv,1,445,,Dual-Task at home,3.0,6.0,big,small,False,Size,left,left,885.8290410134941,Correct,1.0,0.946067415730337,
3,22,231,B,73.66563684894903,50.379235285276,3.6832818424474514,0.7913551773284739,B,572.8013750049286,Correct,sub_003_day_22_data.csv,1,445,,Dual-Task at home,8.0,3.0,small,big,False,Size,right,right,3344.87137402175,Correct,1.0,0.946067415730337,
3,22,232,A,19.94590483542011,42.61690933445416,0.9972952417710056,0.6694248464191175,A,605.5528740398586,Correct,sub_003_day_22_data.csv,1,445,,Dual-Task at home,3.0,5.0,big,small,False,Size,left,left,1025.6632500095293,Correct,1.0,0.946067415730337,
3,22,233,B,58.549402667693926,42.14548339357349,2.927470133384696,0.6620197050562056,B,444.91033197846264,Correct,sub_003_day_22_data.csv,1,445,,Dual-Task at home,2.0,8.0,big,small,False,Value,right,right,3391.678415995557,Correct,1.0,0.946067415730337,
3,22,234,A,60.25576897657336,75.16680352176256,3.012788448828668,1.1807173886889832,A,886.3430820056237,Correct,sub_003_day_22_data.csv,1,445,,Dual-Task at home,3.0,6.0,big,small,False,Size,left,left,2504.5792079763487,Correct,1.0,0.946067415730337,
3,22,235,B,69.49799594008921,37.52887106551556,3.4748997970044604,0.5895021281847111,B,495.4126249649562,Correct,sub_003_day_22_data.csv,1,445,,Dual-Task at home,7.0,3.0,big,small,True,Value,left,left,2861.1334990127943,Correct,1.0,0.946067415730337,
3,22,236,A,62.145225690693366,77.35676911021402,3.107261284534668,1.215117287710451,A,540.6414159806445,Correct,sub_003_day_22_data.csv,1,445,,Dual-Task at home,8.0,4.0,big,small,True,Size,left,right,1503.2687499769963,Incorrect,0.0,0.946067415730337,
3,22,237,A,33.76779248894677,60.75708496785765,1.6883896244473384,0.9543700589427622,A,516.6465410147794,Correct,sub_003_day_22_data.csv,1,445,,Dual-Task at home,6.0,3.0,small,big,False,Value,left,left,792.0070000109263,Correct,1.0,0.946067415730337,
3,22,238,B,58.347109990215266,45.123653247428145,2.9173554995107636,0.7088006877262673,B,469.1668329760432,Correct,sub_003_day_22_data.csv,1,445,,Dual-Task at home,6.0,7.0,big,small,False,Value,right,right,557.4653740040958,Correct,1.0,0.946067415730337,
3,22,239,A,23.384312370665292,35.4232061204891,1.1692156185332647,0.5564264205736277,A,656.2542080064304,Correct,sub_003_day_22_data.csv,1,445,,Dual-Task at home,5.0,4.0,small,big,False,Size,right,right,2295.5385830136947,Correct,1.0,0.946067415730337,
3,22,240,A,31.94371660829026,50.22125829881022,1.597185830414513,0.7888736806278882,A,475.7289579720237,Correct,sub_003_day_22_data.csv,1,445,,Dual-Task at home,6.0,2.0,small,big,False,Value,left,left,1852.9260409995911,Correct,1.0,0.946067415730337,
3,22,241,A,57.51776778745206,74.07470652734821,2.875888389372603,1.163562769215685,A,565.300665970426,Correct,sub_003_day_22_data.csv,1,445,,Dual-Task at home,4.0,2.0,big,small,True,Value,left,left,1305.665373976808,Correct,1.0,0.946067415730337,
3,22,242,A,20.583266087872804,42.09816733917489,1.02916330439364,0.661276466211728,A,437.17083299998194,Correct,sub_003_day_22_data.csv,1,445,,Dual-Task at home,4.0,6.0,big,small,False,Size,left,left,1560.7919989852237,Correct,1.0,0.946067415730337,
3,22,243,B,85.1393602928328,68.07049678841989,4.25696801464164,1.0692488631835375,A,793.1204159976915,Incorrect,sub_003_day_22_data.csv,0,445,,Dual-Task at home,8.0,7.0,small,big,False,Size,right,right,1706.2092070118524,Correct,1.0,0.946067415730337,
3,22,244,A,18.725572621868455,45.540171310827546,0.9362786310934228,0.7153433381665824,A,608.5272910422646,Correct,sub_003_day_22_data.csv,1,445,,Dual-Task at home,2.0,3.0,big,small,False,Value,right,right,1119.6677489788271,Correct,1.0,0.946067415730337,
3,22,245,B,76.91921601382711,65.50130456220317,3.845960800691356,1.0288920860658255,A,2307.6930409879424,Incorrect,sub_003_day_22_data.csv,0,445,,Dual-Task at home,3.0,5.0,big,small,False,Size,left,left,2278.8217489724047,Correct,1.0,0.946067415730337,
3,22,246,A,34.69732778477743,49.4321717966165,1.7348663892388714,0.7764787388361948,A,698.7305820221081,Correct,sub_003_day_22_data.csv,1,445,,Dual-Task at home,4.0,2.0,small,big,False,Value,left,left,2261.284207983408,Correct,1.0,0.946067415730337,
3,22,247,B,81.430890029702,52.34930937324229,4.0715445014851,0.8223010287373864,B,1213.34462397499,Correct,sub_003_day_22_data.csv,1,445,,Dual-Task at home,3.0,4.0,big,small,False,Size,left,left,4618.857498979196,Correct,1.0,0.946067415730337,
3,22,248,A,19.16000393157737,37.179131562300014,0.9580001965788684,0.5840084329148506,A,669.3999160197563,Correct,sub_003_day_22_data.csv,1,445,,Dual-Task at home,5.0,8.0,big,small,False,Size,left,left,2715.0154580012895,Correct,1.0,0.946067415730337,
3,22,249,B,34.65745492949952,16.10160203109507,1.732872746474976,0.2529233732595738,A,1613.0116239655763,Incorrect,sub_003_day_22_data.csv,0,445,,Dual-Task at home,6.0,8.0,big,small,False,Size,left,left,4649.263083003461,Correct,1.0,0.946067415730337,
3,22,250,B,49.152985608621634,19.85400669934174,2.457649280431082,0.3118660079548727,B,452.57279102224857,Correct,sub_003_day_22_data.csv,1,445,,Dual-Task at home,7.0,4.0,small,big,False,Size,right,right,3536.01283201715,Correct,1.0,0.946067415730337,
3,22,251,A,53.89597965098032,78.3079170759616,2.6947989825490164,1.2300578850187982,A,623.8850000081584,Correct,sub_003_day_22_data.csv,1,445,,Dual-Task at home,5.0,3.0,small,big,False,Size,right,right,1056.8067909916865,Correct,1.0,0.946067415730337,
3,22,252,B,71.80487179589072,50.41817928915269,3.590243589794536,0.7919669083108758,B,589.8618740029633,Correct,sub_003_day_22_data.csv,1,445,,Dual-Task at home,4.0,5.0,big,small,False,Size,left,left,1173.9112079958431,Correct,1.0,0.946067415730337,
3,22,253,B,32.18341475926097,19.050785504587704,1.6091707379630489,0.2992490389316382,B,463.2360409596003,Correct,sub_003_day_22_data.csv,1,445,,Dual-Task at home,3.0,6.0,big,small,False,Value,right,right,2091.20324900141,Correct,1.0,0.946067415730337,
3,22,254,B,46.54175812489109,26.560207708992134,2.327087906244554,0.4172067670819435,B,587.5799570349045,Correct,sub_003_day_22_data.csv,1,445,,Dual-Task at home,2.0,7.0,big,small,False,Size,left,left,857.6776660047472,Correct,1.0,0.946067415730337,
3,22,255,A,46.44299721097517,70.16508193754316,2.3221498605487585,1.1021505297675571,A,710.3159989928827,Correct,sub_003_day_22_data.csv,1,445,,Dual-Task at home,3.0,8.0,big,small,False,Size,left,left,959.3905819929204,Correct,1.0,0.946067415730337,
3,22,256,B,75.06882483494454,45.51043494470052,3.7534412417472263,0.7148762404197369,B,584.0816239942797,Correct,sub_003_day_22_data.csv,1,445,,Dual-Task at home,3.0,4.0,big,small,False,Value,right,right,1336.8397490121424,Correct,1.0,0.946067415730337,
3,22,257,A,28.153151060388033,48.77327924149119,1.4076575530194018,0.7661288787827614,A,774.3913329904899,Correct,sub_003_day_22_data.csv,1,445,,Dual-Task at home,4.0,3.0,small,big,False,Size,right,right,2736.7106239544228,Correct,1.0,0.946067415730337,
3,22,258,B,64.87666841383081,47.36363353864232,3.2438334206915407,0.7439862158615894,B,601.2914989842102,Correct,sub_003_day_22_data.csv,1,445,,Dual-Task at home,7.0,4.0,small,big,False,Value,left,left,3883.131998998578,Correct,1.0,0.946067415730337,
3,22,259,B,74.60525764420869,47.3013339443282,3.7302628822104342,0.7430076161224948,B,504.3895000126213,Correct,sub_003_day_22_data.csv,1,445,,Dual-Task at home,5.0,4.0,small,big,False,Value,left,left,6832.4151239939965,Correct,1.0,0.946067415730337,
3,22,260,B,57.72379194508436,44.528492663824615,2.886189597254218,0.6994519271404921,B,580.7015410391614,Correct,sub_003_day_22_data.csv,1,445,,Dual-Task at home,2.0,3.0,big,small,False,Size,left,left,756.9974579964764,Correct,1.0,0.946067415730337,
3,22,261,A,16.734019714100594,40.77916728138368,0.8367009857050297,0.640557661753521,A,599.6946659870446,Correct,sub_003_day_22_data.csv,1,445,,Dual-Task at home,8.0,4.0,small,big,False,Value,left,left,691.6929580038413,Correct,1.0,0.946067415730337,
3,22,262,A,56.72882882959596,74.79251728477215,2.8364414414797983,1.1748381142266389,A,681.246166001074,Correct,sub_003_day_22_data.csv,1,445,,Dual-Task at home,2.0,6.0,small,big,True,Size,right,right,659.1192909982055,Correct,1.0,0.946067415730337,
3,22,263,B,57.34674004911007,36.33762818423946,2.8673370024555034,0.5707901287624205,B,499.85179101349786,Correct,sub_003_day_22_data.csv,1,445,,Dual-Task at home,4.0,7.0,big,small,False,Value,right,right,932.574458012823,Correct,1.0,0.946067415730337,
3,22,264,B,52.03401437907924,30.57459930072676,2.601700718953962,0.4802646827480741,B,468.384332023561,Correct,sub_003_day_22_data.csv,1,445,,Dual-Task at home,2.0,5.0,big,small,False,Size,left,left,3769.8980410350487,Correct,1.0,0.946067415730337,
3,22,265,B,54.29109687825495,24.578460726565837,2.7145548439127474,0.3860775582756223,B,458.5202499874867,Correct,sub_003_day_22_data.csv,1,445,,Dual-Task at home,7.0,6.0,small,big,False,Value,left,left,539.1666240175255,Correct,1.0,0.946067415730337,
3,22,266,B,65.77915630222287,35.355516004551376,3.288957815111144,0.5553631467188748,B,444.2057079868391,Correct,sub_003_day_22_data.csv,1,445,,Dual-Task at home,8.0,2.0,small,big,False,Size,right,right,911.5471659461036,Correct,1.0,0.946067415730337,
3,22,267,B,54.54560810639202,47.16748474135122,2.7272804053196005,0.7409051177586883,B,1550.3013739944436,Correct,sub_003_day_22_data.csv,1,445,,Dual-Task at home,8.0,7.0,big,small,True,Value,left,left,3052.0477070240304,Correct,1.0,0.946067415730337,
3,22,268,B,70.78994876792157,49.95412805305398,3.539497438396079,0.7846776085397908,B,363.20458201225847,Correct,sub_003_day_22_data.csv,1,445,,Dual-Task at home,6.0,8.0,big,small,False,Value,right,right,2522.620916017331,Correct,1.0,0.946067415730337,
3,22,269,A,32.15453828646748,48.99394457156458,1.607726914323374,0.7695950816820641,A,632.0917080156505,Correct,sub_003_day_22_data.csv,1,445,,Dual-Task at home,8.0,6.0,small,big,False,Size,right,right,3791.595500020776,Correct,1.0,0.946067415730337,
3,22,270,A,52.425490847523854,76.95889606779846,2.6212745423761925,1.2088675125748805,A,658.7088740197942,Correct,sub_003_day_22_data.csv,1,445,,Dual-Task at home,4.0,3.0,small,big,False,Size,right,right,4238.9980829902925,Correct,1.0,0.946067415730337,
3,22,271,A,17.180159461332003,42.96896850486928,0.8590079730666003,0.6749549789361425,A,429.8778740339913,Correct,sub_003_day_22_data.csv,1,445,,Dual-Task at home,4.0,3.0,small,big,False,Size,right,right,2482.6491250423715,Correct,1.0,0.946067415730337,
3,22,272,B,42.22159308860875,19.315949538443228,2.111079654430438,0.303414225835422,B,1113.2686660275797,Correct,sub_003_day_22_data.csv,1,445,,Dual-Task at home,4.0,3.0,big,small,True,Size,left,left,1118.067541043274,Correct,1.0,0.946067415730337,
3,22,273,B,48.21311505358485,38.02892227848892,2.4106557526792427,0.59735691427019,B,1077.1391660091467,Correct,sub_003_day_22_data.csv,1,445,,Dual-Task at home,7.0,5.0,small,big,False,Value,left,left,2611.1153319943696,Correct,1.0,0.946067415730337,
3,22,274,A,53.55568993912262,71.12905027773344,2.6777844969561313,1.117292509046732,A,543.9399579772726,Correct,sub_003_day_22_data.csv,1,445,,Dual-Task at home,5.0,8.0,big,small,False,Size,left,left,2808.5842080181465,Correct,1.0,0.946067415730337,
3,22,275,B,69.97853109878227,51.2108257801066,3.4989265549391133,0.8044177702752486,B,480.903041025158,Correct,sub_003_day_22_data.csv,1,445,,Dual-Task at home,6.0,4.0,small,big,False,Value,left,left,8052.129207993858,Correct,1.0,0.946067415730337,
3,22,276,B,80.78589165902287,58.64618254554526,4.039294582951143,0.9212120812308549,B,1184.6514159697108,Correct,sub_003_day_22_data.csv,1,445,,Dual-Task at home,2.0,6.0,big,small,False,Value,right,right,2339.948082983028,Correct,1.0,0.946067415730337,
3,22,277,B,55.5839059322585,24.161645772476636,2.7791952966129254,0.3795302442872574,B,762.037998996675,Correct,sub_003_day_22_data.csv,1,445,,Dual-Task at home,7.0,3.0,small,big,False,Value,left,left,3514.0541659784503,Correct,1.0,0.946067415730337,
3,22,278,A,41.44255202723096,55.51383341511349,2.072127601361548,0.8720092561476406,A,1071.517790958751,Correct,sub_003_day_22_data.csv,1,445,,Dual-Task at home,5.0,4.0,small,big,False,Value,left,right,2985.7722489978187,Incorrect,0.0,0.946067415730337,
3,22,279,A,37.45858242919484,50.396564322345014,1.872929121459742,0.7916273812062228,A,1153.3804570208304,Correct,sub_003_day_22_data.csv,1,445,,Dual-Task at home,3.0,2.0,big,small,True,Value,left,left,1914.1368739656173,Correct,1.0,0.946067415730337,
3,22,280,B,46.83293191697498,29.218557196860655,2.341646595848749,0.4589640231907529,B,698.5214570304379,Correct,sub_003_day_22_data.csv,1,445,,Dual-Task at home,8.0,4.0,small,big,False,Size,right,right,3139.292291016318,Correct,1.0,0.946067415730337,
3,22,281,A,67.7576055878242,84.94893480774627,3.3878802793912097,1.3343747476114698,A,990.2307080337778,Correct,sub_003_day_22_data.csv,1,445,,Dual-Task at home,7.0,6.0,small,big,False,Value,left,left,2936.6602079826407,Correct,1.0,0.946067415730337,
3,22,282,A,58.39123077677544,69.55639400484985,2.919561538838772,1.0925892820791672,A,843.7716239714064,Correct,sub_003_day_22_data.csv,1,445,,Dual-Task at home,5.0,2.0,small,big,False,Value,left,left,793.6947499983944,Correct,1.0,0.946067415730337,
3,22,283,B,48.44057455693232,37.51538043240201,2.422028727846616,0.5892902178153021,B,1795.7070830161683,Correct,sub_003_day_22_data.csv,1,445,,Dual-Task at home,4.0,6.0,big,small,False,Value,right,right,2719.4408330251463,Correct,1.0,0.946067415730337,
3,22,284,A,11.222909167420433,34.103454598663745,0.5611454583710216,0.5356958121459753,A,1123.620331985876,Correct,sub_003_day_22_data.csv,1,445,,Dual-Task at home,3.0,6.0,big,small,False,Size,left,left,3609.6412500482984,Correct,1.0,0.946067415730337,
3,22,285,B,30.358033315919904,13.241016051136636,1.5179016657959952,0.2079893937615769,B,1197.020250023343,Correct,sub_003_day_22_data.csv,1,445,,Dual-Task at home,2.0,6.0,big,small,False,Value,right,right,1519.3690830492417,Correct,1.0,0.946067415730337,
3,22,286,B,72.81729308990933,42.89619690300541,3.640864654495466,0.6738118852871152,B,532.1794989868067,Correct,sub_003_day_22_data.csv,1,445,,Dual-Task at home,4.0,3.0,small,big,False,Value,left,left,6401.621875003912,Correct,1.0,0.946067415730337,
3,22,287,A,57.15263503348424,79.79090434652568,2.857631751674212,1.253352594591655,A,826.4120829990134,Correct,sub_003_day_22_data.csv,1,445,,Dual-Task at home,5.0,8.0,big,small,False,Value,right,left,5392.601624014787,Incorrect,0.0,0.946067415730337,
3,22,288,B,65.17058261389701,51.52969433306575,3.2585291306948507,0.8094265457924348,B,1712.3319990350865,Correct,sub_003_day_22_data.csv,1,445,,Dual-Task at home,3.0,7.0,big,small,False,Value,right,right,2182.278623979073,Correct,1.0,0.946067415730337,
3,22,289,B,38.93475891553092,12.818453458731664,1.946737945776546,0.2013517960816703,B,498.3272490208037,Correct,sub_003_day_22_data.csv,1,445,,Dual-Task at home,2.0,7.0,big,small,False,Size,left,left,2210.4487909819,Correct,1.0,0.946067415730337,
3,22,290,A,14.846929121943669,33.412841661817225,0.7423464560971834,0.5248476895016199,A,742.83712398028,Correct,sub_003_day_22_data.csv,1,445,,Dual-Task at home,5.0,7.0,big,small,False,Size,left,left,2337.770748999901,Correct,1.0,0.946067415730337,
3,22,291,B,57.491932080597095,26.265369147009984,2.874596604029855,0.4125754537803529,B,781.481874990277,Correct,sub_003_day_22_data.csv,1,445,,Dual-Task at home,3.0,5.0,big,small,False,Value,right,right,1771.8834999832325,Correct,1.0,0.946067415730337,
3,22,292,A,42.37506483688841,59.84345318770969,2.118753241844421,0.9400187644997674,A,934.9222909659148,Correct,sub_003_day_22_data.csv,1,445,,Dual-Task at home,8.0,2.0,small,big,False,Size,right,right,2018.3597909635864,Correct,1.0,0.946067415730337,
3,22,293,B,65.80682597606787,56.12642112613778,3.2903412988033938,0.8816317614108071,B,910.6338320416398,Correct,sub_003_day_22_data.csv,1,445,,Dual-Task at home,3.0,4.0,big,small,False,Size,left,left,2442.4087069928646,Correct,1.0,0.946067415730337,
3,22,294,A,31.75256814243988,45.08715442504712,1.587628407121994,0.7082273655649829,A,717.8617489989847,Correct,sub_003_day_22_data.csv,1,445,,Dual-Task at home,4.0,7.0,big,small,False,Size,left,left,1288.744707009755,Correct,1.0,0.946067415730337,
3,22,295,A,46.671535448939814,68.52681452459368,2.3335767724469907,1.076416685421869,A,1213.979750056751,Correct,sub_003_day_22_data.csv,1,445,,Dual-Task at home,6.0,2.0,big,small,True,Size,left,left,1775.2691240166314,Correct,1.0,0.946067415730337,
3,22,296,A,60.09193207777763,80.82763533729243,3.0045966038888814,1.2696375269133633,A,813.6657910072245,Correct,sub_003_day_22_data.csv,1,445,,Dual-Task at home,4.0,2.0,small,big,False,Size,right,right,1924.182457034476,Correct,1.0,0.946067415730337,
3,22,297,A,67.20229585569234,81.87770102593181,3.360114792784617,1.2861319201794443,A,1335.001706960611,Correct,sub_003_day_22_data.csv,1,445,,Dual-Task at home,4.0,2.0,small,big,False,Value,left,left,5856.319624988828,Correct,1.0,0.946067415730337,
3,22,298,B,37.13423602216736,16.06193689251415,1.856711801108368,0.2523003147197266,B,987.4462080188096,Correct,sub_003_day_22_data.csv,1,445,,Dual-Task at home,4.0,3.0,small,big,False,Value,left,left,7061.7047069827095,Correct,1.0,0.946067415730337,
3,22,299,A,19.59141242035064,39.592747052519485,0.979570621017532,0.6219214163781708,A,1026.011582987849,Correct,sub_003_day_22_data.csv,1,445,,Dual-Task at home,4.0,6.0,big,small,False,Value,right,left,1746.0637490148656,Incorrect,0.0,0.946067415730337,
3,22,300,B,58.27095450021149,31.410267274302655,2.913547725010574,0.4933913245812056,B,1937.893291004002,Correct,sub_003_day_22_data.csv,1,445,,Dual-Task at home,7.0,3.0,small,big,False,Size,right,right,668.3364160126075,Correct,1.0,0.946067415730337,
3,22,301,A,48.075936395435114,73.96874586626775,2.4037968197717556,1.161898343043586,A,1130.2804989973083,Correct,sub_003_day_22_data.csv,1,445,,Dual-Task at home,5.0,6.0,big,small,False,Size,left,left,1724.1527080186645,Correct,1.0,0.946067415730337,
3,22,302,B,61.853355748606674,38.75926204895971,3.0926677874303334,0.6088290645578674,B,1049.7352489619516,Correct,sub_003_day_22_data.csv,1,445,,Dual-Task at home,8.0,2.0,small,big,False,Size,right,right,5502.378166012932,Correct,1.0,0.946067415730337,
3,22,303,A,39.56991100987883,54.08642070289898,1.9784955504939417,0.8495875096959715,A,2438.6456240317784,Correct,sub_003_day_22_data.csv,1,445,,Dual-Task at home,8.0,3.0,small,big,False,Value,left,left,3302.011457970366,Correct,1.0,0.946067415730337,
3,22,304,A,26.425189357520953,50.15009594017151,1.3212594678760476,0.7877558649123306,A,972.1197070321068,Correct,sub_003_day_22_data.csv,1,445,,Dual-Task at home,3.0,6.0,big,small,False,Value,right,right,1153.5930819809437,Correct,1.0,0.946067415730337,
3,22,305,B,30.474099608727578,12.146211183971625,1.5237049804363787,0.1907922391225771,B,1033.8505830150098,Correct,sub_003_day_22_data.csv,1,445,,Dual-Task at home,8.0,7.0,small,big,False,Value,left,left,3551.5334159717895,Correct,1.0,0.946067415730337,
3,22,306,B,55.672519057529016,44.5977915468166,2.783625952876451,0.70054047144904,B,682.3325409786776,Correct,sub_003_day_22_data.csv,1,445,,Dual-Task at home,3.0,8.0,big,small,False,Value,right,right,1219.204833032563,Correct,1.0,0.946067415730337,
3,22,307,A,25.62298573437511,56.81199361788366,1.2811492867187555,0.8924007089286677,A,1895.3435830189849,Correct,sub_003_day_22_data.csv,1,445,,Dual-Task at home,2.0,5.0,big,small,False,Value,right,right,403.07445696089417,Correct,1.0,0.946067415730337,
3,22,308,A,15.705900251532473,34.70839086996037,0.7852950125766236,0.5451981288749527,A,877.4051660439,Correct,sub_003_day_22_data.csv,1,445,,Dual-Task at home,5.0,6.0,big,small,False,Size,left,left,1406.826833030209,Correct,1.0,0.946067415730337,
3,22,309,A,36.58092812964007,49.79401523574624,1.829046406482004,0.7821625622867932,A,1038.6605830281042,Correct,sub_003_day_22_data.csv,1,445,,Dual-Task at home,7.0,2.0,small,big,False,Size,right,right,2591.9997489545494,Correct,1.0,0.946067415730337,
3,22,310,A,30.61791346294879,58.43767850106847,1.5308956731474392,0.9179369073589944,A,1365.8143330249004,Correct,sub_003_day_22_data.csv,1,445,,Dual-Task at home,3.0,2.0,big,small,True,Value,left,left,4527.33862499008,Correct,1.0,0.946067415730337,
3,22,311,A,39.67849505461366,67.60230509874128,1.9839247527306831,1.0618945253197072,A,1009.3962080427444,Correct,sub_003_day_22_data.csv,1,445,,Dual-Task at home,8.0,3.0,small,big,False,Value,left,left,1964.95724999113,Correct,1.0,0.946067415730337,
3,22,312,B,52.004804502024115,29.038872338160154,2.6002402251012056,0.4561415400304789,B,1002.7839990216308,Correct,sub_003_day_22_data.csv,1,445,,Dual-Task at home,2.0,5.0,big,small,False,Value,right,right,2531.8185000214726,Correct,1.0,0.946067415730337,
3,22,313,A,66.47265333941337,80.97834106411925,3.3236326669706684,1.2720048069346286,A,1119.9967910069972,Correct,sub_003_day_22_data.csv,1,445,,Dual-Task at home,6.0,5.0,small,big,False,Size,right,right,3189.577081997413,Correct,1.0,0.946067415730337,
3,22,314,B,42.79575456928433,25.965554189025532,2.139787728464216,0.4078659714331515,B,1169.4732489995658,Correct,sub_003_day_22_data.csv,1,445,,Dual-Task at home,5.0,3.0,big,small,True,Value,left,left,3129.8867490259,Correct,1.0,0.946067415730337,
3,22,315,B,47.25021671559244,34.408523692883335,2.362510835779622,0.5404878262721631,B,941.4461239939556,Correct,sub_003_day_22_data.csv,1,445,,Dual-Task at home,3.0,7.0,big,small,False,Value,right,left,1373.589916038327,Incorrect,0.0,0.946067415730337,
3,22,316,A,22.378440397262892,39.859434413839736,1.1189220198631449,0.6261105316538155,A,695.1572910184041,Correct,sub_003_day_22_data.csv,1,445,,Dual-Task at home,4.0,7.0,big,small,False,Size,left,left,1518.6469570035115,Correct,1.0,0.946067415730337,
3,22,317,B,51.11029398291017,31.947653406232657,2.5555146991455087,0.5018325662022671,B,1798.6400829977356,Correct,sub_003_day_22_data.csv,1,445,,Dual-Task at home,7.0,5.0,small,big,False,Value,left,left,4091.5140000288375,Correct,1.0,0.946067415730337,
3,22,318,B,46.67281484804708,39.42197491020451,2.333640742402354,0.6192389338394981,B,699.0933330380358,Correct,sub_003_day_22_data.csv,1,445,,Dual-Task at home,7.0,2.0,small,big,False,Value,left,left,4613.985790987499,Correct,1.0,0.946067415730337,
3,22,319,B,58.30686759530894,38.42783859595927,2.915343379765447,0.6036230771319998,B,846.2652489542961,Correct,sub_003_day_22_data.csv,1,445,,Dual-Task at home,7.0,6.0,small,big,False,Value,left,left,7398.175748996437,Correct,1.0,0.946067415730337,
3,22,320,B,47.562043886355795,17.874560434983717,2.37810219431779,0.2807729387434581,B,1368.158916011453,Correct,sub_003_day_22_data.csv,1,445,,Dual-Task at home,4.0,6.0,big,small,False,Value,right,right,2348.810249997769,Correct,1.0,0.946067415730337,
3,22,321,A,25.763014040109148,35.69339986178171,1.2881507020054572,0.5606706139370817,A,1029.8814569832757,Correct,sub_003_day_22_data.csv,1,445,,Dual-Task at home,8.0,2.0,small,big,False,Value,left,left,1544.95783301536,Correct,1.0,0.946067415730337,
3,22,322,A,42.40243020018844,62.03919490375769,2.120121510009422,0.9745093947213526,A,838.7903739931062,Correct,sub_003_day_22_data.csv,1,445,,Dual-Task at home,8.0,4.0,small,big,False,Size,right,right,4637.695415993221,Correct,1.0,0.946067415730337,
3,22,323,A,37.716697790443334,46.18087529282612,1.8858348895221664,0.7254074927814447,A,904.1486249770968,Correct,sub_003_day_22_data.csv,1,445,,Dual-Task at home,7.0,6.0,small,big,False,Value,left,left,1001.7510409816168,Correct,1.0,0.946067415730337,
3,22,324,B,30.343206325394853,12.189447263568,1.5171603162697425,0.1914713898727271,B,2398.1954570044763,Correct,sub_003_day_22_data.csv,1,445,,Dual-Task at home,6.0,7.0,big,small,False,Value,right,right,932.6036660349928,Correct,1.0,0.946067415730337,
3,22,325,B,74.68989420822815,60.381961886476574,3.734494710411408,0.9484776393594684,B,1953.2480830093848,Correct,sub_003_day_22_data.csv,1,445,,Dual-Task at home,6.0,5.0,small,big,False,Value,left,left,838.7647490017116,Correct,1.0,0.946067415730337,
3,22,326,A,37.410878250762295,61.96739030320659,1.8705439125381147,0.973381490693426,A,893.4444159967825,Correct,sub_003_day_22_data.csv,1,445,,Dual-Task at home,3.0,4.0,big,small,False,Value,right,right,948.6889989930204,Correct,1.0,0.946067415730337,
3,22,327,B,61.205339504874466,39.63570598952791,3.060266975243723,0.6225962137827291,B,924.060499004554,Correct,sub_003_day_22_data.csv,1,445,,Dual-Task at home,6.0,2.0,small,big,False,Size,right,right,2110.289541014936,Correct,1.0,0.946067415730337,
3,22,328,A,53.59773217847419,74.94909126925022,2.67988660892371,1.177297572623537,A,979.8247910221108,Correct,sub_003_day_22_data.csv,1,445,,Dual-Task at home,2.0,4.0,big,small,False,Size,left,left,1600.7551240036264,Correct,1.0,0.946067415730337,
3,22,329,B,63.42673318897162,49.93026386077143,3.171336659448581,0.7843027506839974,B,1331.5544159850106,Correct,sub_003_day_22_data.csv,1,445,,Dual-Task at home,7.0,3.0,small,big,False,Size,right,left,2292.75125003187,Incorrect,0.0,0.946067415730337,
3,22,330,A,29.006843396203248,49.550718342189064,1.4503421698101624,0.7783408636195909,A,1008.4492490277626,Correct,sub_003_day_22_data.csv,1,445,,Dual-Task at home,8.0,5.0,small,big,False,Size,right,right,3310.295415984001,Correct,1.0,0.946067415730337,
3,22,331,B,88.24570117423815,65.7207872625106,4.412285058711907,1.0323397122602045,B,991.1394579685292,Correct,sub_003_day_22_data.csv,1,445,,Dual-Task at home,2.0,8.0,small,big,True,Size,right,right,1572.1286659827456,Correct,1.0,0.946067415730337,
3,22,332,B,82.30117294957742,56.019594004257854,4.115058647478872,0.8799537249042964,B,990.241583029274,Correct,sub_003_day_22_data.csv,1,445,,Dual-Task at home,4.0,7.0,big,small,False,Size,left,left,903.4012489719316,Correct,1.0,0.946067415730337,
3,22,333,A,21.65849816594739,53.29255625868913,1.0829249082973695,0.8371175161665927,A,900.3079580143094,Correct,sub_003_day_22_data.csv,1,445,,Dual-Task at home,8.0,5.0,small,big,False,Size,right,right,1198.833831993397,Correct,1.0,0.946067415730337,
3,22,334,B,34.23490430461505,10.525063912212184,1.7117452152307524,0.1653273173258442,B,544.9852489982732,Correct,sub_003_day_22_data.csv,1,445,,Dual-Task at home,4.0,8.0,big,small,False,Size,left,left,2017.283541033976,Correct,1.0,0.946067415730337,
3,22,335,B,36.09137946125192,11.809990841056816,1.804568973062596,0.1855109023261341,B,1335.2510000113398,Correct,sub_003_day_22_data.csv,1,445,,Dual-Task at home,5.0,8.0,big,small,False,Value,right,right,376.19237502804026,Correct,1.0,0.946067415730337,
3,22,336,B,79.97852238691316,48.264087149049146,3.998926119345658,0.7581305080983518,B,518.5142909758724,Correct,sub_003_day_22_data.csv,1,445,,Dual-Task at home,7.0,8.0,big,small,False,Value,right,right,2525.0837500207126,Correct,1.0,0.946067415730337,
3,22,337,B,64.4255965768119,34.52855523087253,3.2212798288405953,0.5423732772618928,B,811.8717910256237,Correct,sub_003_day_22_data.csv,1,445,,Dual-Task at home,7.0,2.0,small,big,False,Size,right,right,990.3329579974524,Correct,1.0,0.946067415730337,
3,22,338,A,37.851536492875624,62.8390177219653,1.8925768246437813,0.987072982170625,A,1093.998415977694,Correct,sub_003_day_22_data.csv,1,445,,Dual-Task at home,6.0,2.0,big,small,True,Size,left,left,1802.482791012153,Correct,1.0,0.946067415730337,
3,22,339,A,34.61803374610375,67.5801853485062,1.7309016873051877,1.0615470690955184,A,899.387416022364,Correct,sub_003_day_22_data.csv,1,445,,Dual-Task at home,6.0,2.0,big,small,True,Size,left,left,3514.011166000273,Correct,1.0,0.946067415730337,
3,22,340,B,73.50824884978347,49.689943860774335,3.6754124424891734,0.7805278129514895,B,844.8725410271436,Correct,sub_003_day_22_data.csv,1,445,,Dual-Task at home,2.0,6.0,big,small,False,Value,right,right,7239.5587069913745,Correct,1.0,0.946067415730337,
3,22,341,A,22.82845423472406,49.69130844129666,1.141422711736203,0.7805492477322103,A,931.2641239957884,Correct,sub_003_day_22_data.csv,1,445,,Dual-Task at home,7.0,5.0,small,big,False,Size,right,right,2239.6902500186116,Correct,1.0,0.946067415730337,
3,22,342,A,29.840124001033672,59.10050968008416,1.4920062000516836,0.9283486351718244,A,851.8612909829244,Correct,sub_003_day_22_data.csv,1,445,,Dual-Task at home,6.0,2.0,small,big,False,Size,right,right,2325.643707998097,Correct,1.0,0.946067415730337,
3,22,343,B,41.77991038927106,14.677349734074015,2.088995519463553,0.2305512704936752,B,1870.6411240273155,Correct,sub_003_day_22_data.csv,1,445,,Dual-Task at home,5.0,7.0,small,big,True,Value,right,right,5020.79166600015,Correct,1.0,0.946067415730337,
3,22,344,B,70.5106548335861,60.03887249629826,3.525532741679305,0.9430884038209246,B,3624.150040966924,Correct,sub_003_day_22_data.csv,1,445,,Dual-Task at home,4.0,6.0,small,big,True,Value,right,right,2014.8826250224377,Correct,1.0,0.946067415730337,
3,22,345,A,65.1802864218136,89.04606268690736,3.2590143210906803,1.3987322818414216,A,2258.0739579861984,Correct,sub_003_day_22_data.csv,1,445,,Dual-Task at home,3.0,7.0,big,small,False,Value,right,right,930.9451240114868,Correct,1.0,0.946067415730337,
3,22,346,A,48.44298587568028,67.79860116659938,2.422149293784014,1.064977936743265,B,2967.688957985956,Incorrect,sub_003_day_22_data.csv,0,445,,Dual-Task at home,4.0,5.0,big,small,False,Value,right,right,607.5399160035886,Correct,1.0,0.946067415730337,
3,22,347,A,41.978517993259445,56.69333548952823,2.0989258996629725,0.890536831407017,A,3808.367874007672,Correct,sub_003_day_22_data.csv,1,445,,Dual-Task at home,2.0,8.0,big,small,False,Value,right,right,732.8486659680493,Correct,1.0,0.946067415730337,
3,22,348,A,19.334333239854868,41.031431313651936,0.9667166619927434,0.6445202159062156,A,1566.5587070398033,Correct,sub_003_day_22_data.csv,1,445,,Dual-Task at home,3.0,8.0,big,small,False,Value,right,right,1253.7983750225976,Correct,1.0,0.946067415730337,
3,22,349,B,57.4834824879873,40.88172206698827,2.8741741243993655,0.6421685885587504,B,1910.1689159870148,Correct,sub_003_day_22_data.csv,1,445,,Dual-Task at home,6.0,2.0,small,big,False,Size,right,right,2013.020290993154,Correct,1.0,0.946067415730337,
3,22,350,A,19.21607949199447,41.95252832752388,0.9608039745997234,0.6589887739663336,A,2708.3166660158895,Correct,sub_003_day_22_data.csv,1,445,,Dual-Task at home,2.0,3.0,big,small,False,Value,right,right,1146.7888319748454,Correct,1.0,0.946067415730337,
3,22,351,B,59.57027793003701,28.86225794540125,2.9785138965018505,0.4533672876364309,B,2127.751457039267,Correct,sub_003_day_22_data.csv,1,445,,Dual-Task at home,6.0,4.0,small,big,False,Value,left,right,748.5239579691552,Incorrect,0.0,0.946067415730337,
3,22,352,A,35.59982729824114,60.58088522262924,1.779991364912057,0.9516023198168924,A,2931.4739160472527,Correct,sub_003_day_22_data.csv,1,445,,Dual-Task at home,2.0,4.0,big,small,False,Value,right,right,978.020541020669,Correct,1.0,0.946067415730337,
3,22,353,B,65.19136966072355,52.98195860314864,3.259568483036178,0.8322386596022516,B,5530.141708033625,Correct,sub_003_day_22_data.csv,1,445,,Dual-Task at home,5.0,8.0,small,big,True,Value,right,right,323.1537489918992,Correct,1.0,0.946067415730337,
3,22,354,A,39.40109167686464,47.11084720720492,1.970054583843232,0.7400154574527309,A,3176.5420410083607,Correct,sub_003_day_22_data.csv,1,445,,Dual-Task at home,5.0,8.0,big,small,False,Value,right,right,610.9988749958575,Correct,1.0,0.946067415730337,
3,22,355,B,70.58450972828936,43.15436393366963,3.5292254864144685,0.6778671635217841,B,2298.814624955412,Correct,sub_003_day_22_data.csv,1,445,,Dual-Task at home,2.0,5.0,big,small,False,Size,left,left,724.4399570045061,Correct,1.0,0.946067415730337,
3,22,356,B,30.87794439731238,16.663088351631842,1.5438972198656191,0.2617431797580212,A,5885.66237402847,Incorrect,sub_003_day_22_data.csv,0,445,,Dual-Task at home,8.0,4.0,small,big,False,Size,right,right,1345.7159989629872,Correct,1.0,0.946067415730337,
3,22,357,B,62.62615160796128,50.20414355171182,3.131307580398064,0.7886048428091263,B,1230.4784990265034,Correct,sub_003_day_22_data.csv,1,445,,Dual-Task at home,4.0,7.0,big,small,False,Size,left,left,3048.1894990080036,Correct,1.0,0.946067415730337,
3,22,358,A,11.45546849464759,31.96605546644871,0.5727734247323795,0.5021216250881957,A,1088.5337910149246,Correct,sub_003_day_22_data.csv,1,445,,Dual-Task at home,8.0,4.0,small,big,False,Size,right,right,413.85741595877334,Correct,1.0,0.946067415730337,
3,22,359,A,42.44575631950124,51.5506268237732,2.122287815975062,0.809755352587574,B,1772.7904160274193,Incorrect,sub_003_day_22_data.csv,0,445,,Dual-Task at home,2.0,8.0,big,small,False,Size,left,left,746.7037909664214,Correct,1.0,0.946067415730337,
3,22,360,B,32.66541358017069,15.335685656970824,1.6332706790085347,0.2408923869885095,B,605.0216660369188,Correct,sub_003_day_22_data.csv,1,445,,Dual-Task at home,6.0,2.0,small,big,False,Value,left,left,1254.810998972971,Correct,1.0,0.946067415730337,
3,22,361,B,76.33655389876107,52.31832826654991,3.8168276949380537,0.8218143786514621,B,1664.4566660397686,Correct,sub_003_day_22_data.csv,1,445,,Dual-Task at home,7.0,5.0,small,big,False,Value,left,left,389.80049901874736,Correct,1.0,0.946067415730337,
3,22,362,B,79.26418860364612,57.28549829627714,3.9632094301823058,0.8998385030240745,B,1543.2677490171045,Correct,sub_003_day_22_data.csv,1,445,,Dual-Task at home,7.0,3.0,small,big,False,Size,right,right,395.3537910128944,Correct,1.0,0.946067415730337,
3,22,363,A,46.22190955185331,68.78406166036382,2.3110954775926653,1.0804575139813315,B,1462.9806660232134,Incorrect,sub_003_day_22_data.csv,0,445,,Dual-Task at home,4.0,2.0,small,big,False,Value,left,left,4385.963832959533,Correct,1.0,0.946067415730337,
3,22,364,B,86.5668302578938,69.60095441582985,4.32834151289469,1.0932892353780457,A,2360.808708006516,Incorrect,sub_003_day_22_data.csv,0,445,,Dual-Task at home,4.0,3.0,big,small,True,Size,left,right,3350.1913740183227,Incorrect,0.0,0.946067415730337,
3,22,365,B,65.29548558031289,45.0419313098455,3.264774279015644,0.7075170025325336,B,2239.9015830014832,Correct,sub_003_day_22_data.csv,1,445,,Dual-Task at home,8.0,3.0,small,big,False,Size,right,right,1208.9113750262186,Correct,1.0,0.946067415730337,
3,22,366,B,50.54668454317667,35.109167911884505,2.5273342271588333,0.5514935199281343,B,1314.1765409964137,Correct,sub_003_day_22_data.csv,1,445,,Dual-Task at home,3.0,2.0,small,big,False,Value,left,left,981.7319579888136,Correct,1.0,0.946067415730337,
3,22,367,A,32.44964963537066,61.15134896599371,1.622482481768533,0.960563143343358,A,2316.887958033476,Correct,sub_003_day_22_data.csv,1,445,,Dual-Task at home,3.0,7.0,big,small,False,Size,left,left,736.4397500059567,Correct,1.0,0.946067415730337,
3,22,368,B,46.36284495642063,39.08788606758442,2.3181422478210316,0.6139910785713902,B,855.0215000286698,Correct,sub_003_day_22_data.csv,1,445,,Dual-Task at home,3.0,2.0,small,big,False,Size,right,right,1728.2255829777569,Correct,1.0,0.946067415730337,
3,22,369,B,79.86679649660758,52.376447627927405,3.9933398248303784,0.8227273154451364,B,585.680541000329,Correct,sub_003_day_22_data.csv,1,445,,Dual-Task at home,8.0,7.0,small,big,False,Value,left,left,2603.9449580130167,Correct,1.0,0.946067415730337,
3,22,370,A,49.56701222772192,60.22542367955094,2.478350611386096,0.94601874295505,B,757.3448329931125,Incorrect,sub_003_day_22_data.csv,0,445,,Dual-Task at home,8.0,3.0,small,big,False,Value,left,left,907.4152079992928,Correct,1.0,0.946067415730337,
3,22,371,B,34.98457037425176,19.673788239083216,1.7492285187125878,0.3090351430009255,B,3329.763831978198,Correct,sub_003_day_22_data.csv,1,445,,Dual-Task at home,3.0,4.0,big,small,False,Value,right,right,644.0217079943977,Correct,1.0,0.946067415730337,
3,22,372,A,14.88009789150806,33.24810523178535,0.744004894575403,0.5222600157097861,A,1325.414082966745,Correct,sub_003_day_22_data.csv,1,445,,Dual-Task at home,2.0,3.0,big,small,False,Value,right,right,1201.0930410469882,Correct,1.0,0.946067415730337,
3,22,373,B,66.57879701906302,44.12435319956635,3.3289398509531507,0.6931037192807946,B,663.0350000341423,Correct,sub_003_day_22_data.csv,1,445,,Dual-Task at home,7.0,5.0,small,big,False,Size,right,right,669.2091249860823,Correct,1.0,0.946067415730337,
3,22,374,B,78.12673615892216,63.23208402353027,3.906336807946108,0.993247253197476,B,659.3429580098018,Correct,sub_003_day_22_data.csv,1,445,,Dual-Task at home,6.0,5.0,small,big,False,Value,left,left,782.6276660198346,Correct,1.0,0.946067415730337,
3,22,375,B,51.9253070275278,43.04369117847137,2.59626535137639,0.6761287199483672,B,1464.938873948995,Correct,sub_003_day_22_data.csv,1,445,,Dual-Task at home,2.0,8.0,big,small,False,Size,left,left,419.53499894589186,Correct,1.0,0.946067415730337,
3,22,376,A,38.37356853764831,64.5296113575299,1.9186784268824155,1.013628764899102,A,1131.9174569798631,Correct,sub_003_day_22_data.csv,1,445,,Dual-Task at home,5.0,6.0,big,small,False,Value,right,right,1047.0193329965696,Correct,1.0,0.946067415730337,
3,22,377,B,53.56717855468448,29.089490167128336,2.6783589277342243,0.4569366430286145,B,821.2316659628414,Correct,sub_003_day_22_data.csv,1,445,,Dual-Task at home,2.0,7.0,big,small,False,Size,left,left,1619.328748958651,Correct,1.0,0.946067415730337,
3,22,378,B,78.4575387004069,47.22557923206643,3.9228769350203447,0.741817663884913,B,573.5085000051185,Correct,sub_003_day_22_data.csv,1,445,,Dual-Task at home,5.0,8.0,big,small,False,Size,left,left,1843.4426240273751,Correct,1.0,0.946067415730337,
3,22,379,B,50.08722660300577,36.87430638941821,2.5043613301502883,0.5792202502960772,B,804.3421250185929,Correct,sub_003_day_22_data.csv,1,445,,Dual-Task at home,7.0,6.0,small,big,False,Size,right,right,629.0112489950843,Correct,1.0,0.946067415730337,
3,22,380,A,32.37967949052906,60.80018967301656,1.6189839745264527,0.9550471460680742,A,697.7830409887247,Correct,sub_003_day_22_data.csv,1,445,,Dual-Task at home,4.0,3.0,small,big,False,Size,right,right,603.0685000005178,Correct,1.0,0.946067415730337,
3,22,381,A,14.698892213973554,38.237268052757074,0.7349446106986777,0.6006296020394266,A,608.6408319533803,Correct,sub_003_day_22_data.csv,1,445,,Dual-Task at home,2.0,5.0,big,small,False,Size,left,left,1559.7260409849696,Correct,1.0,0.946067415730337,
3,22,382,A,14.590766788953946,35.61055631051806,0.7295383394476973,0.5593693104768458,A,805.083040962927,Correct,sub_003_day_22_data.csv,1,445,,Dual-Task at home,6.0,2.0,small,big,False,Size,right,right,1241.7146239895374,Correct,1.0,0.946067415730337,
3,22,383,A,48.72196869208698,60.44113629072307,2.4360984346043493,0.9494071487277752,A,623.2800409779884,Correct,sub_003_day_22_data.csv,1,445,,Dual-Task at home,3.0,4.0,big,small,False,Value,right,right,1860.255248961039,Correct,1.0,0.946067415730337,
3,22,384,B,61.60064772387492,40.62264882016024,3.080032386193746,0.6380990755138675,B,517.8854580153711,Correct,sub_003_day_22_data.csv,1,445,,Dual-Task at home,4.0,6.0,big,small,False,Value,right,right,1332.4926240020432,Correct,1.0,0.946067415730337,
3,22,385,B,40.33150850118837,17.31072539809938,2.0165754250594183,0.2719162386948963,B,620.1731659821235,Correct,sub_003_day_22_data.csv,1,445,,Dual-Task at home,5.0,6.0,big,small,False,Value,right,right,1325.920291012153,Correct,1.0,0.946067415730337,
3,22,386,A,48.691476436567086,65.79627492449775,2.434573821828354,1.0335254696818823,A,1619.6887910482474,Correct,sub_003_day_22_data.csv,1,445,,Dual-Task at home,6.0,3.0,small,big,False,Size,right,right,1143.340333015658,Correct,1.0,0.946067415730337,
3,22,387,A,11.57653070383001,32.693208516141986,0.5788265351915005,0.5135437184829547,A,1021.2602079845964,Correct,sub_003_day_22_data.csv,1,445,,Dual-Task at home,3.0,7.0,big,small,False,Size,left,left,472.2060830099508,Correct,1.0,0.946067415730337,
3,22,388,B,86.2372956887086,62.90246797554566,4.31186478443543,0.9880696564232074,B,795.069956977386,Correct,sub_003_day_22_data.csv,1,445,,Dual-Task at home,4.0,7.0,big,small,False,Size,left,left,460.0316660362296,Correct,1.0,0.946067415730337,
3,22,389,B,37.64474733464664,28.062178952036675,1.882237366732332,0.4407996761972027,B,503.6787909921258,Correct,sub_003_day_22_data.csv,1,445,,Dual-Task at home,8.0,6.0,small,big,False,Size,right,right,2916.9577910215594,Correct,1.0,0.946067415730337,
3,22,390,A,58.552288681524914,73.53582919299411,2.9276144340762458,1.1550981038417207,A,1387.2185410000384,Correct,sub_003_day_22_data.csv,1,445,,Dual-Task at home,6.0,4.0,small,big,False,Size,right,right,505.60345803387463,Correct,1.0,0.946067415730337,
3,22,391,B,61.09305463784083,48.43461004342592,3.0546527318920416,0.7608090754595663,B,547.0935819903389,Correct,sub_003_day_22_data.csv,1,445,,Dual-Task at home,5.0,4.0,small,big,False,Size,right,right,808.8352500344627,Correct,1.0,0.946067415730337,
3,22,392,B,66.22493404559583,38.87766114833357,3.3112467022797913,0.6106888732617903,B,861.651623970829,Correct,sub_003_day_22_data.csv,1,445,,Dual-Task at home,6.0,4.0,small,big,False,Size,right,right,363.2352070417255,Correct,1.0,0.946067415730337,
3,22,393,A,65.17994743159414,78.34845292192988,3.2589973715797074,1.2306946205983034,B,539.6194990025833,Incorrect,sub_003_day_22_data.csv,0,445,,Dual-Task at home,2.0,7.0,big,small,False,Size,left,left,589.858456980437,Correct,1.0,0.946067415730337,
3,22,394,B,40.118080992585014,20.52241395669164,2.0059040496292506,0.3223653246013555,B,501.76220800494775,Correct,sub_003_day_22_data.csv,1,445,,Dual-Task at home,4.0,7.0,big,small,False,Value,right,right,2150.268000026699,Correct,1.0,0.946067415730337,
3,22,395,A,37.43531250069917,69.85144406690331,1.8717656250349584,1.097223917616109,A,628.131416044198,Correct,sub_003_day_22_data.csv,1,445,,Dual-Task at home,2.0,6.0,big,small,False,Size,left,left,882.6487080077641,Correct,1.0,0.946067415730337,
