subject,day,trial,cat,x,y,xt,yt,resp,rt,fb,f_name,acc,n_trials,block,session_type,ns_left_digit,ns_right_digit,ns_left_size,ns_right_size,ns_congruent,ns_cue,ns_correct_side,ns_resp,ns_rt,ns_fb,acc_stroop,acc_stroop_mean,resp_key
3,24,600,A,64.97384696844686,76.20727331300799,3.2486923484223436,1.197061049951277,A,1231.8425419507548,Correct,sub_003_day_24_data.csv,1,600,,Button-Switch at home,,,,,,,,,,,,,k
3,24,601,B,33.942731371596295,20.14578356739826,1.6971365685798148,0.3164492282807418,B,2502.7189169777557,Correct,sub_003_day_24_data.csv,1,600,,Button-Switch at home,,,,,,,,,,,,,d
3,24,602,B,56.48553423368054,45.61092624413095,2.824276711684027,0.7164547540599385,B,848.4480840270407,Correct,sub_003_day_24_data.csv,1,600,,Button-Switch at home,,,,,,,,,,,,,d
3,24,603,A,69.02045970133808,87.1526734327595,3.4510229850669045,1.3689909929853377,A,647.9690000414848,Correct,sub_003_day_24_data.csv,1,600,,Button-Switch at home,,,,,,,,,,,,,k
3,24,604,A,40.710561213864146,60.84196503667014,2.035528060693207,0.95570335194585,A,2387.009250000119,Correct,sub_003_day_24_data.csv,1,600,,Button-Switch at home,,,,,,,,,,,,,k
3,24,605,B,36.447638146403655,12.940756948954128,1.8223819073201823,0.2032729348136267,B,724.527999991551,Correct,sub_003_day_24_data.csv,1,600,,Button-Switch at home,,,,,,,,,,,,,d
3,24,606,B,53.96623650596107,35.68345875639511,2.698311825298054,0.5605144594188264,B,794.754208996892,Correct,sub_003_day_24_data.csv,1,600,,Button-Switch at home,,,,,,,,,,,,,d
3,24,607,B,57.50722536191395,46.048081160939,2.8753612680956975,0.7233215674355626,B,581.2122909701429,Correct,sub_003_day_24_data.csv,1,600,,Button-Switch at home,,,,,,,,,,,,,d
3,24,608,B,56.20226559583588,37.31161083803945,2.8101132797917945,0.5860894125119301,B,1417.1381249907429,Correct,sub_003_day_24_data.csv,1,600,,Button-Switch at home,,,,,,,,,,,,,d
3,24,609,A,63.67170513526445,77.56588278999115,3.1835852567632226,1.2184020377112157,A,1326.619290979579,Correct,sub_003_day_24_data.csv,1,600,,Button-Switch at home,,,,,,,,,,,,,k
3,24,610,A,43.80088474267046,57.58302511391657,2.190044237133523,0.9045120433467844,B,753.5071659949608,Incorrect,sub_003_day_24_data.csv,0,600,,Button-Switch at home,,,,,,,,,,,,,d
3,24,611,A,57.72130744514283,82.47243415527058,2.8860653722571414,1.29547396632933,A,735.7423339853995,Correct,sub_003_day_24_data.csv,1,600,,Button-Switch at home,,,,,,,,,,,,,k
3,24,612,A,61.62619713557517,78.29893254367046,3.0813098567787587,1.2299167563155895,A,728.8603750057518,Correct,sub_003_day_24_data.csv,1,600,,Button-Switch at home,,,,,,,,,,,,,k
3,24,613,A,38.13356770533058,59.57305801361152,1.9066783852665288,0.9357714070372026,A,1628.3404169953428,Correct,sub_003_day_24_data.csv,1,600,,Button-Switch at home,,,,,,,,,,,,,k
3,24,614,B,41.303642855883055,18.914519126859417,2.065182142794153,0.2971085716756259,B,506.71133399009705,Correct,sub_003_day_24_data.csv,1,600,,Button-Switch at home,,,,,,,,,,,,,d
3,24,615,B,59.913271707968896,52.099280140801746,2.995663585398445,0.8183735787382969,B,565.5514170066454,Correct,sub_003_day_24_data.csv,1,600,,Button-Switch at home,,,,,,,,,,,,,d
3,24,616,B,69.34661289789838,54.83594803912054,3.467330644894919,0.8613610575616635,B,459.49095801915973,Correct,sub_003_day_24_data.csv,1,600,,Button-Switch at home,,,,,,,,,,,,,d
3,24,617,A,19.72909253568584,36.362121168934266,0.986454626784292,0.571174863666329,A,575.6012499914505,Correct,sub_003_day_24_data.csv,1,600,,Button-Switch at home,,,,,,,,,,,,,k
3,24,618,B,53.23021451509928,28.306472820400742,2.661510725754964,0.4446370353080507,B,556.9955409737304,Correct,sub_003_day_24_data.csv,1,600,,Button-Switch at home,,,,,,,,,,,,,d
3,24,619,A,31.4909345858635,41.964417024709746,1.574546729293175,0.6591755211850329,A,787.422165973112,Correct,sub_003_day_24_data.csv,1,600,,Button-Switch at home,,,,,,,,,,,,,k
3,24,620,A,30.994696755432052,39.59926380761041,1.5497348377716025,0.6220237813277653,A,646.6738329618238,Correct,sub_003_day_24_data.csv,1,600,,Button-Switch at home,,,,,,,,,,,,,k
3,24,621,B,36.68848179123019,25.062981069104342,1.8344240895615096,0.3936883860187914,B,691.9244999880902,Correct,sub_003_day_24_data.csv,1,600,,Button-Switch at home,,,,,,,,,,,,,d
3,24,622,B,80.55125469030207,49.07677330192506,4.0275627345151035,0.7708961523360972,B,529.8946669790894,Correct,sub_003_day_24_data.csv,1,600,,Button-Switch at home,,,,,,,,,,,,,d
3,24,623,B,37.61904193237278,24.590393625973096,1.8809520966186393,0.3862649998211917,B,765.1952079613693,Correct,sub_003_day_24_data.csv,1,600,,Button-Switch at home,,,,,,,,,,,,,d
3,24,624,A,35.61687060897632,55.327277236984,1.780843530448816,0.8690788385541737,A,2061.985083972104,Correct,sub_003_day_24_data.csv,1,600,,Button-Switch at home,,,,,,,,,,,,,k
3,24,625,B,81.05701764258882,52.8849540544913,4.052850882129441,0.8307149157151181,B,565.4612500220537,Correct,sub_003_day_24_data.csv,1,600,,Button-Switch at home,,,,,,,,,,,,,d
3,24,626,B,72.83078532454637,45.566301718888994,3.6415392662273183,0.7157537936565881,B,821.7127089737915,Correct,sub_003_day_24_data.csv,1,600,,Button-Switch at home,,,,,,,,,,,,,d
3,24,627,A,53.56883353379138,69.40419399412148,2.6784416766895687,1.0901985299012646,A,832.3402499663644,Correct,sub_003_day_24_data.csv,1,600,,Button-Switch at home,,,,,,,,,,,,,k
3,24,628,A,33.9500755503589,55.588155790692994,1.6975037775179451,0.87317670929323,A,1650.7244169479236,Correct,sub_003_day_24_data.csv,1,600,,Button-Switch at home,,,,,,,,,,,,,k
3,24,629,B,57.60651364017226,30.05978012330553,2.880325682008613,0.4721779220195056,B,856.0472499812022,Correct,sub_003_day_24_data.csv,1,600,,Button-Switch at home,,,,,,,,,,,,,d
3,24,630,B,56.18703950469595,36.300799531238525,2.8093519752347977,0.5702116256338737,B,993.1846660329028,Correct,sub_003_day_24_data.csv,1,600,,Button-Switch at home,,,,,,,,,,,,,d
3,24,631,A,64.56419793688553,76.89652750657746,3.2282098968442767,1.207887829506146,A,705.0983749795705,Correct,sub_003_day_24_data.csv,1,600,,Button-Switch at home,,,,,,,,,,,,,k
3,24,632,B,54.71644572591058,29.170401026389193,2.735822286295529,0.4582075878338623,B,954.8473749891856,Correct,sub_003_day_24_data.csv,1,600,,Button-Switch at home,,,,,,,,,,,,,d
3,24,633,B,41.231812152917854,16.551399666836,2.0615906076458925,0.2599887779998026,B,648.3761249692179,Correct,sub_003_day_24_data.csv,1,600,,Button-Switch at home,,,,,,,,,,,,,d
3,24,634,B,39.32715653088337,30.394808773922733,1.9663578265441688,0.4774405397571112,A,2203.667458030395,Incorrect,sub_003_day_24_data.csv,0,600,,Button-Switch at home,,,,,,,,,,,,,k
3,24,635,A,19.953241255595305,46.46662282599676,0.9976620627797652,0.729896004536396,A,548.8809589878656,Correct,sub_003_day_24_data.csv,1,600,,Button-Switch at home,,,,,,,,,,,,,k
3,24,636,A,42.804165730121994,59.4630688726159,2.1402082865061,0.93404370165057,A,642.6969160092995,Correct,sub_003_day_24_data.csv,1,600,,Button-Switch at home,,,,,,,,,,,,,k
3,24,637,B,51.96515385352345,43.787258153673136,2.5982576926761727,0.6878086426820965,B,642.9836670286022,Correct,sub_003_day_24_data.csv,1,600,,Button-Switch at home,,,,,,,,,,,,,d
3,24,638,A,48.868283829017464,77.29352177386772,2.443414191450873,1.2141238008743278,A,755.0587500445545,Correct,sub_003_day_24_data.csv,1,600,,Button-Switch at home,,,,,,,,,,,,,k
3,24,639,B,52.2418915231913,43.10382243715357,2.612094576159565,0.6770732595510027,B,443.0555829894729,Correct,sub_003_day_24_data.csv,1,600,,Button-Switch at home,,,,,,,,,,,,,d
3,24,640,B,79.91917589559935,48.53700845123593,3.995958794779967,0.7624175458881423,B,505.7059589889832,Correct,sub_003_day_24_data.csv,1,600,,Button-Switch at home,,,,,,,,,,,,,d
3,24,641,B,75.02236454485312,51.4439396684753,3.751118227242656,0.8080795146709928,B,939.103165990673,Correct,sub_003_day_24_data.csv,1,600,,Button-Switch at home,,,,,,,,,,,,,d
3,24,642,B,75.65041563160327,65.14150733579807,3.782520781580163,1.0232404044495442,B,467.16016600839794,Correct,sub_003_day_24_data.csv,1,600,,Button-Switch at home,,,,,,,,,,,,,d
3,24,643,A,37.86827426447616,51.517608040469824,1.893413713223808,0.8092366947522923,A,1357.7472500037402,Correct,sub_003_day_24_data.csv,1,600,,Button-Switch at home,,,,,,,,,,,,,k
3,24,644,A,53.90197855646792,65.06343961854614,2.695098927823396,1.0220141196145385,A,1188.4034589747898,Correct,sub_003_day_24_data.csv,1,600,,Button-Switch at home,,,,,,,,,,,,,k
3,24,645,B,74.25998348017217,41.45501159586335,3.712999174008609,0.65117379942022,B,536.8061249610037,Correct,sub_003_day_24_data.csv,1,600,,Button-Switch at home,,,,,,,,,,,,,d
3,24,646,B,60.82819661173951,29.698032155086334,3.041409830586975,0.4664955982224634,B,424.2121669813059,Correct,sub_003_day_24_data.csv,1,600,,Button-Switch at home,,,,,,,,,,,,,d
3,24,647,A,56.7717264542577,66.1962686870525,2.838586322712885,1.0398085570115008,A,1858.1455000094136,Correct,sub_003_day_24_data.csv,1,600,,Button-Switch at home,,,,,,,,,,,,,k
3,24,648,B,40.04977818309756,22.41755802347018,2.0024889091548776,0.3521341779897841,B,1145.857084018644,Correct,sub_003_day_24_data.csv,1,600,,Button-Switch at home,,,,,,,,,,,,,d
3,24,649,A,33.9712614322507,63.29649557733915,1.6985630716125348,0.9942590275187376,A,584.9119169870391,Correct,sub_003_day_24_data.csv,1,600,,Button-Switch at home,,,,,,,,,,,,,k
3,24,650,B,36.17547314480333,19.365681291182153,1.8087736572401665,0.3041954103806957,B,540.3112909989432,Correct,sub_003_day_24_data.csv,1,600,,Button-Switch at home,,,,,,,,,,,,,d
3,24,651,A,33.71666116343244,53.28010713831518,1.685833058171622,0.8369219658410404,A,871.4232500060461,Correct,sub_003_day_24_data.csv,1,600,,Button-Switch at home,,,,,,,,,,,,,k
3,24,652,B,54.46966172336808,36.28368949979467,2.7234830861684043,0.5699428618884403,B,788.0650000297464,Correct,sub_003_day_24_data.csv,1,600,,Button-Switch at home,,,,,,,,,,,,,d
3,24,653,B,50.40896744938419,22.281832406123183,2.5204483724692097,0.3500022049779779,B,1004.7419579932466,Correct,sub_003_day_24_data.csv,1,600,,Button-Switch at home,,,,,,,,,,,,,d
3,24,654,A,18.537959553657185,34.666966153650506,0.9268979776828592,0.5445474309527722,A,735.9179999912158,Correct,sub_003_day_24_data.csv,1,600,,Button-Switch at home,,,,,,,,,,,,,k
3,24,655,A,33.324592755799024,44.80054518278629,1.666229637789951,0.703725318115295,A,681.5688339993358,Correct,sub_003_day_24_data.csv,1,600,,Button-Switch at home,,,,,,,,,,,,,k
3,24,656,A,40.069499045949115,69.03078165872051,2.003474952297456,1.0843329826529868,A,559.5778750139289,Correct,sub_003_day_24_data.csv,1,600,,Button-Switch at home,,,,,,,,,,,,,k
3,24,657,B,65.53313206627493,33.2092026354642,3.276656603313746,0.5216489351557457,B,873.7471250351518,Correct,sub_003_day_24_data.csv,1,600,,Button-Switch at home,,,,,,,,,,,,,d
3,24,658,B,71.94346692286283,39.98260893284364,3.5971733461431414,0.6280453524738762,B,498.1909160269424,Correct,sub_003_day_24_data.csv,1,600,,Button-Switch at home,,,,,,,,,,,,,d
3,24,659,B,75.43474405817949,52.37891197734207,3.7717372029089744,0.8227660253552215,B,515.8970410120673,Correct,sub_003_day_24_data.csv,1,600,,Button-Switch at home,,,,,,,,,,,,,d
3,24,660,B,73.91021867376055,47.07443803096173,3.6955109336880274,0.7394435434496867,B,459.9760000128299,Correct,sub_003_day_24_data.csv,1,600,,Button-Switch at home,,,,,,,,,,,,,d
3,24,661,B,50.07656424539115,28.682666812682346,2.5038282122695574,0.450546276720433,B,826.0512499837205,Correct,sub_003_day_24_data.csv,1,600,,Button-Switch at home,,,,,,,,,,,,,d
3,24,662,A,38.43050329892877,54.5148049978263,1.9215251649464389,0.8563165544652562,A,956.207916024141,Correct,sub_003_day_24_data.csv,1,600,,Button-Switch at home,,,,,,,,,,,,,k
3,24,663,B,66.36192927276197,41.91082944653801,3.3180964636380987,0.6583337694754929,B,1049.9769169837236,Correct,sub_003_day_24_data.csv,1,600,,Button-Switch at home,,,,,,,,,,,,,d
3,24,664,A,27.932893135016712,52.378241959155325,1.3966446567508355,0.8227555007341552,A,624.8552090255544,Correct,sub_003_day_24_data.csv,1,600,,Button-Switch at home,,,,,,,,,,,,,k
3,24,665,B,73.23244366796462,46.45248266703012,3.6616221833982303,0.7296738914387451,B,575.5098329973407,Correct,sub_003_day_24_data.csv,1,600,,Button-Switch at home,,,,,,,,,,,,,d
3,24,666,A,25.85296969409065,41.65913167741387,1.292648484704532,0.6543801101634662,A,489.7599160321988,Correct,sub_003_day_24_data.csv,1,600,,Button-Switch at home,,,,,,,,,,,,,k
3,24,667,A,40.59013730634476,48.07411749227171,2.029506865317238,0.7551464717076669,A,859.1587909613736,Correct,sub_003_day_24_data.csv,1,600,,Button-Switch at home,,,,,,,,,,,,,k
3,24,668,A,43.739013928561434,72.10952660843935,2.1869506964280716,1.1326937952345535,A,524.9793750117533,Correct,sub_003_day_24_data.csv,1,600,,Button-Switch at home,,,,,,,,,,,,,k
3,24,669,A,16.016344317134394,33.42968779448017,0.8008172158567197,0.5251123079346963,A,542.7745410124771,Correct,sub_003_day_24_data.csv,1,600,,Button-Switch at home,,,,,,,,,,,,,k
3,24,670,A,45.72462348633253,63.16970763775363,2.2862311743166264,0.9922674472209092,A,772.143958020024,Correct,sub_003_day_24_data.csv,1,600,,Button-Switch at home,,,,,,,,,,,,,k
3,24,671,B,44.15215081182016,27.71896435498152,2.207607540591008,0.4354084739136363,B,685.0750420126133,Correct,sub_003_day_24_data.csv,1,600,,Button-Switch at home,,,,,,,,,,,,,d
3,24,672,B,36.82700866586772,14.323912638730937,1.841350433293386,0.2249994935824955,B,995.5085000256076,Correct,sub_003_day_24_data.csv,1,600,,Button-Switch at home,,,,,,,,,,,,,d
3,24,673,B,33.08401272468781,16.635618149474514,1.6542006362343904,0.2613116788315708,B,553.0758749810047,Correct,sub_003_day_24_data.csv,1,600,,Button-Switch at home,,,,,,,,,,,,,d
3,24,674,A,28.085801029199477,59.81826373276217,1.404290051459974,0.939623089466712,A,519.8502499843016,Correct,sub_003_day_24_data.csv,1,600,,Button-Switch at home,,,,,,,,,,,,,k
3,24,675,B,75.07734558865519,48.013096974677005,3.75386727943276,0.7541879636586981,B,471.2647079722956,Correct,sub_003_day_24_data.csv,1,600,,Button-Switch at home,,,,,,,,,,,,,d
3,24,676,B,40.74276357362179,17.884049747005573,2.0371381786810896,0.2809219965081355,B,479.88579102093354,Correct,sub_003_day_24_data.csv,1,600,,Button-Switch at home,,,,,,,,,,,,,d
3,24,677,A,56.011930087062495,75.51331511339772,2.800596504353125,1.186160380042307,A,585.930000001099,Correct,sub_003_day_24_data.csv,1,600,,Button-Switch at home,,,,,,,,,,,,,k
3,24,678,A,41.24419917523854,73.00626195525187,2.0622099587619274,1.1467796811233566,A,604.3458750355057,Correct,sub_003_day_24_data.csv,1,600,,Button-Switch at home,,,,,,,,,,,,,k
3,24,679,B,63.81171069780375,46.19372089616343,3.1905855348901873,0.7256092710468217,B,528.2823750167154,Correct,sub_003_day_24_data.csv,1,600,,Button-Switch at home,,,,,,,,,,,,,d
3,24,680,B,76.37688895997351,50.216479882481295,3.8188444479986754,0.7887986214397144,B,488.9779580407776,Correct,sub_003_day_24_data.csv,1,600,,Button-Switch at home,,,,,,,,,,,,,d
3,24,681,A,31.176980906880523,57.2867272905569,1.558849045344026,0.8998578080210772,A,1022.1451250254177,Correct,sub_003_day_24_data.csv,1,600,,Button-Switch at home,,,,,,,,,,,,,k
3,24,682,B,68.8523073889786,58.725895796053194,3.44261536944893,0.922464214041802,B,480.6926249875687,Correct,sub_003_day_24_data.csv,1,600,,Button-Switch at home,,,,,,,,,,,,,d
3,24,683,B,40.80248315051709,25.03090026604396,2.040124157525854,0.3931844619427125,B,487.96462500467896,Correct,sub_003_day_24_data.csv,1,600,,Button-Switch at home,,,,,,,,,,,,,d
3,24,684,B,70.37691057500727,53.831229268713415,3.5188455287503637,0.8455789720214897,B,745.8487080293708,Correct,sub_003_day_24_data.csv,1,600,,Button-Switch at home,,,,,,,,,,,,,d
3,24,685,A,29.26602208542272,57.84844613775269,1.463301104271136,0.9086812670397436,A,751.4193750103004,Correct,sub_003_day_24_data.csv,1,600,,Button-Switch at home,,,,,,,,,,,,,k
3,24,686,A,67.490908464794,89.12184328889812,3.3745454232397005,1.3999226407539158,A,482.1967500029132,Correct,sub_003_day_24_data.csv,1,600,,Button-Switch at home,,,,,,,,,,,,,k
3,24,687,A,64.00405385979258,75.61931164623073,3.200202692989629,1.1878253696865777,A,569.2284579854459,Correct,sub_003_day_24_data.csv,1,600,,Button-Switch at home,,,,,,,,,,,,,k
3,24,688,B,86.10034057217108,61.20529178740411,4.305017028608554,0.9614104752006422,B,607.6530840364285,Correct,sub_003_day_24_data.csv,1,600,,Button-Switch at home,,,,,,,,,,,,,d
3,24,689,B,50.385276037726626,39.46124074369888,2.519263801886331,0.6198557201097131,B,1043.652791006025,Correct,sub_003_day_24_data.csv,1,600,,Button-Switch at home,,,,,,,,,,,,,d
3,24,690,B,62.58009264860661,48.95355717195486,3.129004632430331,0.7689606778925064,B,988.0842919810676,Correct,sub_003_day_24_data.csv,1,600,,Button-Switch at home,,,,,,,,,,,,,d
3,24,691,A,40.57965867717953,51.13887368881167,2.0289829338589764,0.8032875494681355,A,1721.7618330032565,Correct,sub_003_day_24_data.csv,1,600,,Button-Switch at home,,,,,,,,,,,,,k
3,24,692,B,76.24369685158501,61.30695736719059,3.8121848425792506,0.9630074343935432,B,519.8447920265608,Correct,sub_003_day_24_data.csv,1,600,,Button-Switch at home,,,,,,,,,,,,,d
3,24,693,A,27.90687190145385,38.635999791967805,1.3953435950726925,0.6068928655527142,A,668.3290830114856,Correct,sub_003_day_24_data.csv,1,600,,Button-Switch at home,,,,,,,,,,,,,k
3,24,694,B,46.89523058138201,20.637669712702657,2.3447615290691006,0.3241757577831962,B,493.137083016336,Correct,sub_003_day_24_data.csv,1,600,,Button-Switch at home,,,,,,,,,,,,,d
3,24,695,A,51.27732595703037,68.23068652257648,2.5638662978515185,1.071765117643572,A,1380.1174170221202,Correct,sub_003_day_24_data.csv,1,600,,Button-Switch at home,,,,,,,,,,,,,k
3,24,696,A,64.21292726793993,80.56925716385815,3.210646363396996,1.2655789320558182,A,902.8170829988084,Correct,sub_003_day_24_data.csv,1,600,,Button-Switch at home,,,,,,,,,,,,,k
3,24,697,A,29.73266296378736,38.78251966782936,1.4866331481893682,0.6091943943807719,A,954.9557500286028,Correct,sub_003_day_24_data.csv,1,600,,Button-Switch at home,,,,,,,,,,,,,k
3,24,698,A,54.08036170943912,78.79655001859214,2.704018085471956,1.2377333133331487,A,520.3369590453804,Correct,sub_003_day_24_data.csv,1,600,,Button-Switch at home,,,,,,,,,,,,,k
3,24,699,A,31.24068612138656,56.73684969395771,1.5620343060693278,0.8912203509318292,A,474.6097089955583,Correct,sub_003_day_24_data.csv,1,600,,Button-Switch at home,,,,,,,,,,,,,k
3,24,700,B,56.2919584241632,46.44608506668409,2.81459792120816,0.7295733981675065,B,946.7771670315416,Correct,sub_003_day_24_data.csv,1,600,,Button-Switch at home,,,,,,,,,,,,,d
3,24,701,A,45.23912697076586,77.21074327329485,2.261956348538293,1.212823519227953,A,513.0593749927357,Correct,sub_003_day_24_data.csv,1,600,,Button-Switch at home,,,,,,,,,,,,,k
3,24,702,B,60.17500090658816,45.814756284033656,3.0087500453294083,0.7196565088396347,B,441.5425829938613,Correct,sub_003_day_24_data.csv,1,600,,Button-Switch at home,,,,,,,,,,,,,d
3,24,703,A,53.23774066270334,73.3284385612052,2.6618870331351667,1.151840419415464,A,1323.7530419719403,Correct,sub_003_day_24_data.csv,1,600,,Button-Switch at home,,,,,,,,,,,,,k
3,24,704,A,25.32688985605381,42.95089632324923,1.2663444928026906,0.6746711017710832,A,689.9919160059653,Correct,sub_003_day_24_data.csv,1,600,,Button-Switch at home,,,,,,,,,,,,,k
3,24,705,B,64.21868483108739,49.53853335215089,3.21093424155437,0.7781494622436509,B,528.7623750045896,Correct,sub_003_day_24_data.csv,1,600,,Button-Switch at home,,,,,,,,,,,,,d
3,24,706,A,45.31681945995458,54.15351769465342,2.265840972997729,0.8506414667778402,A,1259.845124965068,Correct,sub_003_day_24_data.csv,1,600,,Button-Switch at home,,,,,,,,,,,,,k
3,24,707,A,38.23937803962635,53.98549004420897,1.9119689019813175,0.848002094616659,A,1028.3057080232538,Correct,sub_003_day_24_data.csv,1,600,,Button-Switch at home,,,,,,,,,,,,,k
3,24,708,B,71.22164775382868,40.66163195434283,3.561082387691434,0.6387114211536771,B,549.5400829822756,Correct,sub_003_day_24_data.csv,1,600,,Button-Switch at home,,,,,,,,,,,,,d
3,24,709,B,60.17927134969344,33.72728648757527,3.008963567484672,0.5297869772744238,B,945.1061250292696,Correct,sub_003_day_24_data.csv,1,600,,Button-Switch at home,,,,,,,,,,,,,d
3,24,710,A,54.55204800124963,66.05190385364409,2.727602400062482,1.037540879511138,A,986.8886250187644,Correct,sub_003_day_24_data.csv,1,600,,Button-Switch at home,,,,,,,,,,,,,k
3,24,711,B,36.27331211426029,20.537329138777444,1.8136656057130147,0.322599611733694,B,745.7746249856427,Correct,sub_003_day_24_data.csv,1,600,,Button-Switch at home,,,,,,,,,,,,,d
3,24,712,A,50.95505447541651,61.47167551278926,2.5477527237708255,0.9655948209741716,A,1003.9590409724042,Correct,sub_003_day_24_data.csv,1,600,,Button-Switch at home,,,,,,,,,,,,,k
3,24,713,B,49.69715651947551,37.17157462407799,2.484857825973776,0.583889728806841,B,919.7785420110448,Correct,sub_003_day_24_data.csv,1,600,,Button-Switch at home,,,,,,,,,,,,,d
3,24,714,A,56.261217719905986,82.80706843270133,2.813060885995299,1.300730389267409,A,834.2158339801244,Correct,sub_003_day_24_data.csv,1,600,,Button-Switch at home,,,,,,,,,,,,,k
3,24,715,A,45.73708408468466,61.64472024725458,2.286854204234233,0.9683130013068648,A,2089.9358749738894,Correct,sub_003_day_24_data.csv,1,600,,Button-Switch at home,,,,,,,,,,,,,k
3,24,716,A,45.26930681331325,58.761826062709225,2.2634653406656624,0.9230286053506428,A,2129.8414999619126,Correct,sub_003_day_24_data.csv,1,600,,Button-Switch at home,,,,,,,,,,,,,k
3,24,717,A,40.01161035171672,66.84815377224416,2.000580517585836,1.050048343984615,A,1394.2432499607094,Correct,sub_003_day_24_data.csv,1,600,,Button-Switch at home,,,,,,,,,,,,,k
3,24,718,B,79.64817457712171,60.48805305895674,3.9824087288560857,0.9501441155998404,B,897.1068749669939,Correct,sub_003_day_24_data.csv,1,600,,Button-Switch at home,,,,,,,,,,,,,d
3,24,719,B,48.87736084372416,21.64778149319824,2.443868042186208,0.3400425565277434,B,985.5888329911976,Correct,sub_003_day_24_data.csv,1,600,,Button-Switch at home,,,,,,,,,,,,,d
3,24,720,B,60.66680201643768,51.146010079684785,3.033340100821884,0.8033996476338361,B,858.3392080035992,Correct,sub_003_day_24_data.csv,1,600,,Button-Switch at home,,,,,,,,,,,,,d
3,24,721,B,71.69054466155251,43.52636362298191,3.584527233077625,0.6837105209771899,B,851.90850001527,Correct,sub_003_day_24_data.csv,1,600,,Button-Switch at home,,,,,,,,,,,,,d
3,24,722,A,35.18767836598421,44.465535491431694,1.7593839182992104,0.6984629981890902,A,813.1448340136558,Correct,sub_003_day_24_data.csv,1,600,,Button-Switch at home,,,,,,,,,,,,,k
3,24,723,A,46.691408983651606,64.63933507075089,2.3345704491825803,1.0153523009560002,A,877.7209160034545,Correct,sub_003_day_24_data.csv,1,600,,Button-Switch at home,,,,,,,,,,,,,k
3,24,724,B,74.04293020042576,59.05045982990023,3.702146510021288,0.9275624539635686,B,914.2753329942934,Correct,sub_003_day_24_data.csv,1,600,,Button-Switch at home,,,,,,,,,,,,,d
3,24,725,B,42.99436891489744,14.25568397896959,2.149718445744872,0.2239277603011428,B,1289.1474170028232,Correct,sub_003_day_24_data.csv,1,600,,Button-Switch at home,,,,,,,,,,,,,d
3,24,726,B,58.74740938877053,38.88283280313726,2.9373704694385263,0.6107701094254812,B,991.3356250035577,Correct,sub_003_day_24_data.csv,1,600,,Button-Switch at home,,,,,,,,,,,,,d
3,24,727,B,62.11166050674199,36.075376334029855,3.1055830253370993,0.5666706863323764,B,583.448666962795,Correct,sub_003_day_24_data.csv,1,600,,Button-Switch at home,,,,,,,,,,,,,d
3,24,728,B,59.83768163301164,36.858454108483485,2.991884081650582,0.5789712432494412,B,1031.1357920290902,Correct,sub_003_day_24_data.csv,1,600,,Button-Switch at home,,,,,,,,,,,,,d
3,24,729,B,46.59055386272961,28.193613308301423,2.3295276931364803,0.4428642422375559,B,1004.6127919922584,Correct,sub_003_day_24_data.csv,1,600,,Button-Switch at home,,,,,,,,,,,,,d
3,24,730,B,44.22745813038961,28.68804193646471,2.2113729065194803,0.4506307089673672,B,933.6427089874632,Correct,sub_003_day_24_data.csv,1,600,,Button-Switch at home,,,,,,,,,,,,,d
3,24,731,A,52.75257491968331,62.75564729299,2.6376287459841654,0.9857634025346476,A,3701.491084008012,Correct,sub_003_day_24_data.csv,1,600,,Button-Switch at home,,,,,,,,,,,,,k
3,24,732,B,68.49396935896732,45.75778144537106,3.424698467948366,0.7187615501667253,B,727.6194579899311,Correct,sub_003_day_24_data.csv,1,600,,Button-Switch at home,,,,,,,,,,,,,d
3,24,733,A,32.6864328707092,45.12277407819629,1.63432164353546,0.708786877768267,A,582.2033330332488,Correct,sub_003_day_24_data.csv,1,600,,Button-Switch at home,,,,,,,,,,,,,k
3,24,734,B,76.21598497474534,60.67281809147761,3.8107992487372666,0.9530463979438796,B,690.3048329986632,Correct,sub_003_day_24_data.csv,1,600,,Button-Switch at home,,,,,,,,,,,,,d
3,24,735,B,38.83848135252978,12.336583340255231,1.941924067626489,0.1937825979607203,B,509.7696249722503,Correct,sub_003_day_24_data.csv,1,600,,Button-Switch at home,,,,,,,,,,,,,d
3,24,736,B,45.28415637234622,22.260869990534932,2.2642078186173107,0.3496729281239101,B,628.1224159756675,Correct,sub_003_day_24_data.csv,1,600,,Button-Switch at home,,,,,,,,,,,,,d
3,24,737,A,27.419094337059217,58.351079352313285,1.3709547168529608,0.9165766111113124,A,539.9820000166073,Correct,sub_003_day_24_data.csv,1,600,,Button-Switch at home,,,,,,,,,,,,,k
3,24,738,B,48.68995761190514,18.01209551997696,2.434497880595257,0.2829333348065861,B,522.8272089734674,Correct,sub_003_day_24_data.csv,1,600,,Button-Switch at home,,,,,,,,,,,,,d
3,24,739,A,33.26427924279845,64.93220012517554,1.663213962139923,1.0199526144733688,A,697.789833007846,Correct,sub_003_day_24_data.csv,1,600,,Button-Switch at home,,,,,,,,,,,,,k
3,24,740,B,51.78513029911322,31.15071264691325,2.589256514955661,0.4893142500281466,B,579.6154999989085,Correct,sub_003_day_24_data.csv,1,600,,Button-Switch at home,,,,,,,,,,,,,d
3,24,741,A,41.72509771549486,57.33664050136234,2.086254885774743,0.9006418429029946,A,843.1536249700002,Correct,sub_003_day_24_data.csv,1,600,,Button-Switch at home,,,,,,,,,,,,,k
3,24,742,A,28.71878730421817,46.160311844704054,1.4359393652109085,0.7250844828936809,A,598.7199160153978,Correct,sub_003_day_24_data.csv,1,600,,Button-Switch at home,,,,,,,,,,,,,k
3,24,743,A,63.35193336575257,85.03882319816752,3.167596668287629,1.335786711146422,A,898.4892080188729,Correct,sub_003_day_24_data.csv,1,600,,Button-Switch at home,,,,,,,,,,,,,k
3,24,744,B,49.3694104253163,21.66658818048267,2.468470521265815,0.3403379712807989,B,548.2872910215519,Correct,sub_003_day_24_data.csv,1,600,,Button-Switch at home,,,,,,,,,,,,,d
3,24,745,A,16.805467500437878,38.808627762363315,0.8402733750218939,0.6096044993707075,A,503.5417079925537,Correct,sub_003_day_24_data.csv,1,600,,Button-Switch at home,,,,,,,,,,,,,k
3,24,746,A,67.94465846923947,85.17224436516028,3.397232923461974,1.3378824859367109,A,538.6731660109945,Correct,sub_003_day_24_data.csv,1,600,,Button-Switch at home,,,,,,,,,,,,,k
3,24,747,B,47.9022470053834,20.606150223023672,2.3951123502691702,0.3236806507970942,B,554.7312920098193,Correct,sub_003_day_24_data.csv,1,600,,Button-Switch at home,,,,,,,,,,,,,d
3,24,748,A,33.410781355805014,65.40281695057809,1.6705390677902503,1.0273450462800706,A,960.999625036493,Correct,sub_003_day_24_data.csv,1,600,,Button-Switch at home,,,,,,,,,,,,,k
3,24,749,A,26.641134910709233,59.313491679548406,1.3320567455354615,0.931694148596143,A,1186.9081670301966,Correct,sub_003_day_24_data.csv,1,600,,Button-Switch at home,,,,,,,,,,,,,k
3,24,750,B,50.31211039865802,30.469092758935716,2.515605519932901,0.478607389865092,B,656.0649159946479,Correct,sub_003_day_24_data.csv,1,600,,Button-Switch at home,,,,,,,,,,,,,d
3,24,751,A,42.560556609554894,53.41980038834226,2.1280278304777447,0.8391162622812463,B,525.2586249844171,Incorrect,sub_003_day_24_data.csv,0,600,,Button-Switch at home,,,,,,,,,,,,,d
3,24,752,B,70.46042970914048,37.7750576099479,3.5230214854570243,0.5933692173817178,B,488.4332499932498,Correct,sub_003_day_24_data.csv,1,600,,Button-Switch at home,,,,,,,,,,,,,d
3,24,753,B,57.41329335406135,36.097503798661975,2.8706646677030676,0.5670182637340305,B,526.2434580363333,Correct,sub_003_day_24_data.csv,1,600,,Button-Switch at home,,,,,,,,,,,,,d
3,24,754,A,64.28773957846262,83.94033124342681,3.2143869789231307,1.3185316398712172,A,524.8445829492994,Correct,sub_003_day_24_data.csv,1,600,,Button-Switch at home,,,,,,,,,,,,,k
3,24,755,B,54.94181287114264,34.69679679861516,2.7470906435571316,0.5450160096281361,B,527.1988750318997,Correct,sub_003_day_24_data.csv,1,600,,Button-Switch at home,,,,,,,,,,,,,d
3,24,756,A,43.39803568366264,60.94233701227766,2.169901784183132,0.9572799912518244,A,865.0566670112312,Correct,sub_003_day_24_data.csv,1,600,,Button-Switch at home,,,,,,,,,,,,,k
3,24,757,A,53.13717414819513,68.46433040755142,2.6568587074097563,1.075435187206539,A,1811.8452499620616,Correct,sub_003_day_24_data.csv,1,600,,Button-Switch at home,,,,,,,,,,,,,k
3,24,758,A,23.44424675990876,41.6597551838957,1.172212337995438,0.65438990418038,A,761.2820420181379,Correct,sub_003_day_24_data.csv,1,600,,Button-Switch at home,,,,,,,,,,,,,k
3,24,759,A,36.135126905643446,46.290106079086335,1.8067563452821724,0.7271232859597493,A,747.5292500457726,Correct,sub_003_day_24_data.csv,1,600,,Button-Switch at home,,,,,,,,,,,,,k
3,24,760,B,59.6234624376933,36.25427083716576,2.9811731218846647,0.5694807546164732,B,441.5428749634884,Correct,sub_003_day_24_data.csv,1,600,,Button-Switch at home,,,,,,,,,,,,,d
3,24,761,A,26.3699836718528,46.55835207844367,1.3184991835926398,0.7313368842644284,A,687.7765000099316,Correct,sub_003_day_24_data.csv,1,600,,Button-Switch at home,,,,,,,,,,,,,k
3,24,762,A,65.7440031939789,81.75435924646999,3.2872001596989446,1.2841944720382543,A,509.4008329906501,Correct,sub_003_day_24_data.csv,1,600,,Button-Switch at home,,,,,,,,,,,,,k
3,24,763,A,45.471587090066016,76.10730183308405,2.2735793545033007,1.1954907016167893,A,491.91333301132545,Correct,sub_003_day_24_data.csv,1,600,,Button-Switch at home,,,,,,,,,,,,,k
3,24,764,B,63.94614867553204,36.526721796886335,3.197307433776602,0.5737604042840813,B,612.9560829722323,Correct,sub_003_day_24_data.csv,1,600,,Button-Switch at home,,,,,,,,,,,,,d
3,24,765,A,63.774840387827055,84.6750377758386,3.188742019391353,1.3300723830950638,A,544.6862080134451,Correct,sub_003_day_24_data.csv,1,600,,Button-Switch at home,,,,,,,,,,,,,k
3,24,766,B,63.49269779671681,53.93835616509615,3.1746348898358407,0.8472617173748789,B,651.8188750487752,Correct,sub_003_day_24_data.csv,1,600,,Button-Switch at home,,,,,,,,,,,,,d
3,24,767,A,32.575351736798474,54.51940484808232,1.6287675868399236,0.8563888087441158,A,683.4076250088401,Correct,sub_003_day_24_data.csv,1,600,,Button-Switch at home,,,,,,,,,,,,,k
3,24,768,B,38.94375113956854,29.684365500455822,1.9471875569784272,0.4662809229135315,B,730.220792000182,Correct,sub_003_day_24_data.csv,1,600,,Button-Switch at home,,,,,,,,,,,,,d
3,24,769,A,46.38711506346443,56.9504182490021,2.3193557531732214,0.8945750779496554,A,976.8691670033148,Correct,sub_003_day_24_data.csv,1,600,,Button-Switch at home,,,,,,,,,,,,,k
3,24,770,B,60.73727632656434,42.25332158715233,3.0368638163282173,0.6637136234398239,B,461.3949579652399,Correct,sub_003_day_24_data.csv,1,600,,Button-Switch at home,,,,,,,,,,,,,d
3,24,771,B,76.61125145270805,49.960192541667205,3.8305625726354022,0.7847728693041662,B,538.3098329766653,Correct,sub_003_day_24_data.csv,1,600,,Button-Switch at home,,,,,,,,,,,,,d
3,24,772,A,18.18823572594434,31.72923324888698,0.9094117862972172,0.4984016303937017,A,803.2007919973694,Correct,sub_003_day_24_data.csv,1,600,,Button-Switch at home,,,,,,,,,,,,,k
3,24,773,B,55.55918913610793,44.666592895818695,2.7779594568053967,0.7016212005119503,B,491.6737920138985,Correct,sub_003_day_24_data.csv,1,600,,Button-Switch at home,,,,,,,,,,,,,d
3,24,774,B,70.77165367974511,47.03815848760077,3.5385826839872556,0.7388736657151947,B,691.2347910110839,Correct,sub_003_day_24_data.csv,1,600,,Button-Switch at home,,,,,,,,,,,,,d
3,24,775,B,38.142318520981874,11.93210277003044,1.9071159260490935,0.1874290320210302,B,542.1489999862388,Correct,sub_003_day_24_data.csv,1,600,,Button-Switch at home,,,,,,,,,,,,,d
3,24,776,A,60.30006903158095,85.588522111042,3.0150034515790476,1.3444213614782856,A,522.1052920096554,Correct,sub_003_day_24_data.csv,1,600,,Button-Switch at home,,,,,,,,,,,,,k
3,24,777,A,66.58237862041688,85.13587294969531,3.329118931020844,1.337311165078584,A,575.8142920094542,Correct,sub_003_day_24_data.csv,1,600,,Button-Switch at home,,,,,,,,,,,,,k
3,24,778,A,22.151207116801785,37.83445794286792,1.1075603558400893,0.5943022756293294,A,1105.1782499998808,Correct,sub_003_day_24_data.csv,1,600,,Button-Switch at home,,,,,,,,,,,,,k
3,24,779,B,41.230791432843795,25.405167072381264,2.06153957164219,0.3990634311890714,B,466.119582997635,Correct,sub_003_day_24_data.csv,1,600,,Button-Switch at home,,,,,,,,,,,,,d
3,24,780,A,33.18285697645505,54.03582001811587,1.6591428488227524,0.8487926759980655,A,554.7747500240803,Correct,sub_003_day_24_data.csv,1,600,,Button-Switch at home,,,,,,,,,,,,,k
3,24,781,A,22.0831525368804,53.53057011202944,1.10415762684402,0.8408562290321251,A,532.1016249945387,Correct,sub_003_day_24_data.csv,1,600,,Button-Switch at home,,,,,,,,,,,,,k
3,24,782,A,28.18771394077337,53.43223332209981,1.4093856970386685,0.8393115583480225,A,555.7272909791209,Correct,sub_003_day_24_data.csv,1,600,,Button-Switch at home,,,,,,,,,,,,,k
3,24,783,B,39.84440531304335,20.188124265732373,1.9922202656521677,0.3171143144149133,B,849.8250000411645,Correct,sub_003_day_24_data.csv,1,600,,Button-Switch at home,,,,,,,,,,,,,d
3,24,784,A,52.784042706137214,66.82469078353151,2.6392021353068604,1.0496797882197606,A,753.0069589847699,Correct,sub_003_day_24_data.csv,1,600,,Button-Switch at home,,,,,,,,,,,,,k
3,24,785,A,51.246226605423125,62.265174460094464,2.562311330271156,0.978059073291598,A,1938.143500010483,Correct,sub_003_day_24_data.csv,1,600,,Button-Switch at home,,,,,,,,,,,,,k
3,24,786,A,23.448120733475974,36.002625627521205,1.1724060366737987,0.5655279209068211,A,629.6328330063261,Correct,sub_003_day_24_data.csv,1,600,,Button-Switch at home,,,,,,,,,,,,,k
3,24,787,B,64.63934322833958,40.58843007829942,3.2319671614169794,0.6375615687736422,B,490.6210830085911,Correct,sub_003_day_24_data.csv,1,600,,Button-Switch at home,,,,,,,,,,,,,d
3,24,788,A,58.68172397925373,83.48727991843697,2.9340861989626865,1.311415126299781,A,604.3187920004129,Correct,sub_003_day_24_data.csv,1,600,,Button-Switch at home,,,,,,,,,,,,,k
3,24,789,B,71.36869427115896,58.09995177633726,3.568434713557948,0.9126319083723118,B,532.1967499912716,Correct,sub_003_day_24_data.csv,1,600,,Button-Switch at home,,,,,,,,,,,,,d
3,24,790,A,41.596065642995576,62.655056101126576,2.0798032821497787,0.9841833197877778,A,758.8705830276012,Correct,sub_003_day_24_data.csv,1,600,,Button-Switch at home,,,,,,,,,,,,,k
3,24,791,B,67.30910208823865,55.01075932918895,3.3654551044119323,0.8641069868848809,B,580.4597919923253,Correct,sub_003_day_24_data.csv,1,600,,Button-Switch at home,,,,,,,,,,,,,d
3,24,792,A,23.31083317085938,54.47219329540676,1.165541658542969,0.8556472114088652,A,730.4735420038924,Correct,sub_003_day_24_data.csv,1,600,,Button-Switch at home,,,,,,,,,,,,,k
3,24,793,A,39.28127210910488,59.4574382512988,1.9640636054552436,0.9339552560577452,A,631.6109579638578,Correct,sub_003_day_24_data.csv,1,600,,Button-Switch at home,,,,,,,,,,,,,k
3,24,794,A,46.918121634463255,54.57209174471661,2.3459060817231627,0.8572164125811494,B,653.7156670237891,Incorrect,sub_003_day_24_data.csv,0,600,,Button-Switch at home,,,,,,,,,,,,,d
3,24,795,B,46.63501950017983,31.41391510954501,2.3317509750089913,0.4934486246432,B,554.0588339790702,Correct,sub_003_day_24_data.csv,1,600,,Button-Switch at home,,,,,,,,,,,,,d
3,24,796,B,51.41788480326572,32.22222182532422,2.570894240163286,0.5061454768438962,B,586.1403329763561,Correct,sub_003_day_24_data.csv,1,600,,Button-Switch at home,,,,,,,,,,,,,d
3,24,797,B,45.44629459238887,16.86451500993499,2.2723147296194437,0.2649071823078328,B,543.4469579486176,Correct,sub_003_day_24_data.csv,1,600,,Button-Switch at home,,,,,,,,,,,,,d
3,24,798,A,57.614188046093105,82.93959529491605,2.880709402304655,1.3028121163510942,A,778.196916973684,Correct,sub_003_day_24_data.csv,1,600,,Button-Switch at home,,,,,,,,,,,,,k
3,24,799,A,28.5263265584461,59.450881846355934,1.426316327922305,0.9338522682897328,A,678.9475840050727,Correct,sub_003_day_24_data.csv,1,600,,Button-Switch at home,,,,,,,,,,,,,k
3,24,800,B,82.32718520911213,58.81028047448157,4.1163592604556065,0.9237897254709329,B,533.4831670043059,Correct,sub_003_day_24_data.csv,1,600,,Button-Switch at home,,,,,,,,,,,,,d
3,24,801,A,18.97579154740356,40.37393154520737,0.948789577370178,0.6341922336948034,A,680.9729170054197,Correct,sub_003_day_24_data.csv,1,600,,Button-Switch at home,,,,,,,,,,,,,k
3,24,802,A,44.36067068437015,59.40882083088159,2.2180335342185074,0.9331915754036492,A,2275.9840420330875,Correct,sub_003_day_24_data.csv,1,600,,Button-Switch at home,,,,,,,,,,,,,k
3,24,803,A,39.684905745901865,51.87478671742197,1.984245287295093,0.8148472442899511,A,658.5764579940587,Correct,sub_003_day_24_data.csv,1,600,,Button-Switch at home,,,,,,,,,,,,,k
3,24,804,B,42.57879948099123,24.947251555321564,2.128939974049562,0.3918705110672739,B,481.53258295496926,Correct,sub_003_day_24_data.csv,1,600,,Button-Switch at home,,,,,,,,,,,,,d
3,24,805,A,37.03560615231913,46.575703670417965,1.851780307615957,0.7316094424338012,B,486.82504100725055,Incorrect,sub_003_day_24_data.csv,0,600,,Button-Switch at home,,,,,,,,,,,,,d
3,24,806,B,82.44620794458208,57.53387634620569,4.1223103972291035,0.9037400163089168,B,579.443332972005,Correct,sub_003_day_24_data.csv,1,600,,Button-Switch at home,,,,,,,,,,,,,d
3,24,807,B,79.50995815166931,63.25660844313805,3.9754979075834656,0.9936324818798428,B,626.9510829588398,Correct,sub_003_day_24_data.csv,1,600,,Button-Switch at home,,,,,,,,,,,,,d
3,24,808,A,52.81238709397955,65.12894969483682,2.640619354698978,1.0230431494865928,A,959.811249980703,Correct,sub_003_day_24_data.csv,1,600,,Button-Switch at home,,,,,,,,,,,,,k
3,24,809,B,35.0050450630974,11.160965292592788,1.75025225315487,0.1753160328509008,B,876.7022080137394,Correct,sub_003_day_24_data.csv,1,600,,Button-Switch at home,,,,,,,,,,,,,d
3,24,810,A,26.154137586553176,38.19358653760186,1.307706879327659,0.5999434544038801,A,558.9586669811979,Correct,sub_003_day_24_data.csv,1,600,,Button-Switch at home,,,,,,,,,,,,,k
3,24,811,B,65.23041724252819,45.723339200179865,3.2615208621264093,0.7182205326443964,B,479.28154200781137,Correct,sub_003_day_24_data.csv,1,600,,Button-Switch at home,,,,,,,,,,,,,d
3,24,812,A,29.08296310497304,47.37830718258628,1.454148155248652,0.744216708921668,A,574.5200419914909,Correct,sub_003_day_24_data.csv,1,600,,Button-Switch at home,,,,,,,,,,,,,k
3,24,813,B,69.74009243081197,49.68658702525193,3.4870046215405983,0.7804750839024072,B,516.0748340422288,Correct,sub_003_day_24_data.csv,1,600,,Button-Switch at home,,,,,,,,,,,,,d
3,24,814,A,32.68427218600809,41.33943433660413,1.6342136093004045,0.6493583160771659,A,584.1590829659253,Correct,sub_003_day_24_data.csv,1,600,,Button-Switch at home,,,,,,,,,,,,,k
3,24,815,B,75.16444716573812,61.709082124852074,3.7582223582869063,0.9693239953160224,B,814.3225419917144,Correct,sub_003_day_24_data.csv,1,600,,Button-Switch at home,,,,,,,,,,,,,d
3,24,816,B,81.94048996938982,58.75569343012329,4.097024498469491,0.922932274183247,B,789.454499958083,Correct,sub_003_day_24_data.csv,1,600,,Button-Switch at home,,,,,,,,,,,,,d
3,24,817,B,48.02945534706817,20.509706627067196,2.4014727673534084,0.3221657183343809,B,708.8944999850355,Correct,sub_003_day_24_data.csv,1,600,,Button-Switch at home,,,,,,,,,,,,,d
3,24,818,B,40.70088936324488,16.711411884561333,2.035044468162244,0.2625022440382552,B,604.4490420026705,Correct,sub_003_day_24_data.csv,1,600,,Button-Switch at home,,,,,,,,,,,,,d
3,24,819,A,15.626721891151348,43.821428709207865,0.7813360945575674,0.6883453925132814,A,509.71641700016335,Correct,sub_003_day_24_data.csv,1,600,,Button-Switch at home,,,,,,,,,,,,,k
3,24,820,B,89.09196773803518,63.243748736924005,4.454598386901759,0.993430482086996,B,537.5002910150215,Correct,sub_003_day_24_data.csv,1,600,,Button-Switch at home,,,,,,,,,,,,,d
3,24,821,A,58.41860241390191,84.935049166069,2.9209301206950955,1.3341566324620513,A,713.9478329918347,Correct,sub_003_day_24_data.csv,1,600,,Button-Switch at home,,,,,,,,,,,,,k
3,24,822,B,75.51087529584267,54.188153404564694,3.775543764792133,0.8511855232368859,B,525.7412500213832,Correct,sub_003_day_24_data.csv,1,600,,Button-Switch at home,,,,,,,,,,,,,d
3,24,823,A,60.30633892869196,70.44790670744621,3.0153169464345977,1.1065931308644603,A,709.2005829908885,Correct,sub_003_day_24_data.csv,1,600,,Button-Switch at home,,,,,,,,,,,,,k
3,24,824,B,75.691094378079,44.48194979128307,3.78455471890395,0.6987208334082247,B,518.343708012253,Correct,sub_003_day_24_data.csv,1,600,,Button-Switch at home,,,,,,,,,,,,,d
3,24,825,A,10.058063291219856,33.80533661566832,0.5029031645609927,0.5310129858195681,A,551.2972080032341,Correct,sub_003_day_24_data.csv,1,600,,Button-Switch at home,,,,,,,,,,,,,k
3,24,826,A,37.09513715206214,60.141056042911195,1.8547568576031068,0.9446934992177092,A,684.537667024415,Correct,sub_003_day_24_data.csv,1,600,,Button-Switch at home,,,,,,,,,,,,,k
3,24,827,A,27.89522468688149,58.66024182382136,1.3947612343440745,0.9214329238575896,A,552.7140829944983,Correct,sub_003_day_24_data.csv,1,600,,Button-Switch at home,,,,,,,,,,,,,k
3,24,828,A,35.3066029732073,53.55868075831109,1.765330148660365,0.8412977900313556,A,1152.8141250018962,Correct,sub_003_day_24_data.csv,1,600,,Button-Switch at home,,,,,,,,,,,,,k
3,24,829,B,70.61390295579145,54.778670278921695,3.5306951477895723,0.8604613406083897,B,590.7331249909475,Correct,sub_003_day_24_data.csv,1,600,,Button-Switch at home,,,,,,,,,,,,,d
3,24,830,A,61.0441110835328,74.76177217825526,3.05220555417664,1.1743551712228026,A,755.3791669779457,Correct,sub_003_day_24_data.csv,1,600,,Button-Switch at home,,,,,,,,,,,,,k
3,24,831,B,37.65924401459894,22.92886309893558,1.882962200729947,0.3601657393339105,B,689.0060839941725,Correct,sub_003_day_24_data.csv,1,600,,Button-Switch at home,,,,,,,,,,,,,d
3,24,832,A,24.962611063078977,45.448113906307505,1.2481305531539488,0.7138973038378389,A,1103.4745419747196,Correct,sub_003_day_24_data.csv,1,600,,Button-Switch at home,,,,,,,,,,,,,k
3,24,833,B,36.63227373650667,18.88325598863506,1.831613686825334,0.2966174914487569,B,534.0904999757186,Correct,sub_003_day_24_data.csv,1,600,,Button-Switch at home,,,,,,,,,,,,,d
3,24,834,A,13.545928127772893,38.12333543411179,0.6772964063886446,0.5988399526507252,B,480.3000420215539,Incorrect,sub_003_day_24_data.csv,0,600,,Button-Switch at home,,,,,,,,,,,,,d
3,24,835,A,65.9730213876096,84.80592642213344,3.2986510693804805,1.3321283771432546,A,679.0615410427563,Correct,sub_003_day_24_data.csv,1,600,,Button-Switch at home,,,,,,,,,,,,,k
3,24,836,B,55.83072307167077,46.949454347789406,2.791536153583538,0.7374803043453229,B,603.6617499776185,Correct,sub_003_day_24_data.csv,1,600,,Button-Switch at home,,,,,,,,,,,,,d
3,24,837,B,65.65317031969337,35.03790153855496,3.2826585159846684,0.550374070353634,B,538.166916987393,Correct,sub_003_day_24_data.csv,1,600,,Button-Switch at home,,,,,,,,,,,,,d
3,24,838,A,33.33791536459881,61.82787396942453,1.6668957682299403,0.9711899732470984,A,933.3930420107208,Correct,sub_003_day_24_data.csv,1,600,,Button-Switch at home,,,,,,,,,,,,,k
3,24,839,B,72.29338310210447,43.15819878893208,3.614669155105224,0.6779274012873847,B,589.1567090293393,Correct,sub_003_day_24_data.csv,1,600,,Button-Switch at home,,,,,,,,,,,,,d
3,24,840,B,71.87768294527561,54.2140604109313,3.593884147263781,0.8515924695412751,B,836.2285830080509,Correct,sub_003_day_24_data.csv,1,600,,Button-Switch at home,,,,,,,,,,,,,d
3,24,841,B,61.16649656665603,31.198583741939792,3.058324828332802,0.49006620743042,B,494.78941602865234,Correct,sub_003_day_24_data.csv,1,600,,Button-Switch at home,,,,,,,,,,,,,d
3,24,842,A,48.108080790768376,75.64909347666828,2.405404039538419,1.188293181585143,A,619.8293329798616,Correct,sub_003_day_24_data.csv,1,600,,Button-Switch at home,,,,,,,,,,,,,k
3,24,843,B,41.3670876187423,16.790914806817575,2.068354380937115,0.2637510730207509,B,413.4502499946393,Correct,sub_003_day_24_data.csv,1,600,,Button-Switch at home,,,,,,,,,,,,,d
3,24,844,B,68.0240988084758,50.91089961514768,3.40120494042379,0.7997065410929769,B,520.4532920033671,Correct,sub_003_day_24_data.csv,1,600,,Button-Switch at home,,,,,,,,,,,,,d
3,24,845,A,61.025361705634666,88.10208161626568,3.0512680852817335,1.383904261858143,A,586.1085000215098,Correct,sub_003_day_24_data.csv,1,600,,Button-Switch at home,,,,,,,,,,,,,k
3,24,846,A,62.442081655708414,77.80223013475438,3.1221040827854205,1.222114573121234,A,757.421082991641,Correct,sub_003_day_24_data.csv,1,600,,Button-Switch at home,,,,,,,,,,,,,k
3,24,847,A,67.33448279357621,81.22316580184177,3.366724139678811,1.2758505049218591,A,827.6219590334222,Correct,sub_003_day_24_data.csv,1,600,,Button-Switch at home,,,,,,,,,,,,,k
3,24,848,A,43.99802427101119,69.59644917009561,2.1999012135505596,1.093218467143539,A,924.5319169713184,Correct,sub_003_day_24_data.csv,1,600,,Button-Switch at home,,,,,,,,,,,,,k
3,24,849,A,43.22028355882169,57.06777096553232,2.1610141779410843,0.8964184501103061,B,932.3068329831584,Incorrect,sub_003_day_24_data.csv,0,600,,Button-Switch at home,,,,,,,,,,,,,d
3,24,850,A,34.75385445675209,46.21845043764335,1.7376927228376045,0.7259977217760215,A,716.3279579835944,Correct,sub_003_day_24_data.csv,1,600,,Button-Switch at home,,,,,,,,,,,,,k
3,24,851,B,55.461492386496815,30.36716581061839,2.773074619324841,0.4770063251049093,B,814.2695419955999,Correct,sub_003_day_24_data.csv,1,600,,Button-Switch at home,,,,,,,,,,,,,d
3,24,852,A,44.13455554892117,60.05941854573377,2.2067277774460585,0.943411140410759,A,541.0823340062052,Correct,sub_003_day_24_data.csv,1,600,,Button-Switch at home,,,,,,,,,,,,,k
3,24,853,B,42.656840386782605,25.9657147731221,2.1328420193391304,0.4078684938822418,B,804.8638749751262,Correct,sub_003_day_24_data.csv,1,600,,Button-Switch at home,,,,,,,,,,,,,d
3,24,854,B,80.96011396902942,66.31075782582386,4.048005698451471,1.0416069481979005,B,749.4668749859557,Correct,sub_003_day_24_data.csv,1,600,,Button-Switch at home,,,,,,,,,,,,,d
3,24,855,A,23.22131457225245,46.868453550358446,1.1610657286126225,0.7362079467946027,A,594.5128339808434,Correct,sub_003_day_24_data.csv,1,600,,Button-Switch at home,,,,,,,,,,,,,k
3,24,856,A,31.822897749624275,53.51357120820533,1.5911448874812135,0.8405892108752605,A,561.5156249841675,Correct,sub_003_day_24_data.csv,1,600,,Button-Switch at home,,,,,,,,,,,,,k
3,24,857,A,21.279374020293652,42.24020745587251,1.0639687010146828,0.6635076271473893,A,910.726165981032,Correct,sub_003_day_24_data.csv,1,600,,Button-Switch at home,,,,,,,,,,,,,k
3,24,858,A,31.35502594833287,40.02476330973104,1.5677512974166437,0.6287075118776067,A,823.9420420140959,Correct,sub_003_day_24_data.csv,1,600,,Button-Switch at home,,,,,,,,,,,,,k
3,24,859,B,51.394861757833134,31.08091995105442,2.5697430878916565,0.488217948925225,B,581.3610840123147,Correct,sub_003_day_24_data.csv,1,600,,Button-Switch at home,,,,,,,,,,,,,d
3,24,860,A,38.68740312972781,58.12694892654868,1.9343701564863909,0.9130559786161724,A,658.4765840088949,Correct,sub_003_day_24_data.csv,1,600,,Button-Switch at home,,,,,,,,,,,,,k
3,24,861,B,82.00590302713127,59.5049256962502,4.100295151356563,0.9347011870987306,A,494.2741670529358,Incorrect,sub_003_day_24_data.csv,0,600,,Button-Switch at home,,,,,,,,,,,,,k
3,24,862,B,47.96734610550179,33.62773299777411,2.3983673052750896,0.5282231947134312,B,1963.0210410105065,Correct,sub_003_day_24_data.csv,1,600,,Button-Switch at home,,,,,,,,,,,,,d
3,24,863,A,42.603204738735016,58.14238438458709,2.130160236936751,0.9132984382240634,A,953.2554160105065,Correct,sub_003_day_24_data.csv,1,600,,Button-Switch at home,,,,,,,,,,,,,k
3,24,864,B,57.9680127317467,34.043468819213025,2.8984006365873345,0.5347535577257642,B,455.92404197668657,Correct,sub_003_day_24_data.csv,1,600,,Button-Switch at home,,,,,,,,,,,,,d
3,24,865,A,47.89921276286336,62.11772098355635,2.3949606381431683,0.975742879498406,A,932.0948750246316,Correct,sub_003_day_24_data.csv,1,600,,Button-Switch at home,,,,,,,,,,,,,k
3,24,866,B,64.82487249669147,56.68471274593409,3.2412436248345733,0.8904013856673713,B,662.3172499821521,Correct,sub_003_day_24_data.csv,1,600,,Button-Switch at home,,,,,,,,,,,,,d
3,24,867,B,61.65671167314053,49.085192054950696,3.082835583657026,0.7710283937993859,B,805.4452090291306,Correct,sub_003_day_24_data.csv,1,600,,Button-Switch at home,,,,,,,,,,,,,d
3,24,868,B,55.95685837597932,24.041916610741552,2.797842918798966,0.3776495430126204,B,642.704333004076,Correct,sub_003_day_24_data.csv,1,600,,Button-Switch at home,,,,,,,,,,,,,d
3,24,869,A,53.13826729604395,60.13800766126778,2.6569133648021976,0.9446456153508276,B,1774.1970000206493,Incorrect,sub_003_day_24_data.csv,0,600,,Button-Switch at home,,,,,,,,,,,,,d
3,24,870,B,51.41196421338521,27.15832761202808,2.5705982106692606,0.4266020125486612,B,610.3808750049211,Correct,sub_003_day_24_data.csv,1,600,,Button-Switch at home,,,,,,,,,,,,,d
3,24,871,B,54.18365177833009,27.77107251242915,2.7091825889165047,0.4362269869367843,B,598.7254159990698,Correct,sub_003_day_24_data.csv,1,600,,Button-Switch at home,,,,,,,,,,,,,d
3,24,872,A,22.983256465317417,53.60306195803855,1.149162823265871,0.8419949282864622,A,537.8246249747463,Correct,sub_003_day_24_data.csv,1,600,,Button-Switch at home,,,,,,,,,,,,,k
3,24,873,B,76.58572791323095,48.56996397808594,3.8292863956615473,0.7629352100933784,B,445.2806659974158,Correct,sub_003_day_24_data.csv,1,600,,Button-Switch at home,,,,,,,,,,,,,d
3,24,874,A,62.19039261156432,73.0959806492758,3.109519630578216,1.148188979073533,A,871.8002920504659,Correct,sub_003_day_24_data.csv,1,600,,Button-Switch at home,,,,,,,,,,,,,k
3,24,875,B,46.75658221542278,33.40252389837622,2.337829110771139,0.5246856184524812,B,538.2552910014056,Correct,sub_003_day_24_data.csv,1,600,,Button-Switch at home,,,,,,,,,,,,,d
3,24,876,A,31.324500528739605,59.07521867151108,1.5662250264369804,0.927951364938149,A,610.7765409979038,Correct,sub_003_day_24_data.csv,1,600,,Button-Switch at home,,,,,,,,,,,,,k
3,24,877,A,35.017309659045786,59.61263972612199,1.7508654829522894,0.9363931551233996,A,714.9056249763817,Correct,sub_003_day_24_data.csv,1,600,,Button-Switch at home,,,,,,,,,,,,,k
3,24,878,A,38.26732841319789,54.67545664703182,1.9133664206598944,0.858840064669912,A,597.2507920232601,Correct,sub_003_day_24_data.csv,1,600,,Button-Switch at home,,,,,,,,,,,,,k
3,24,879,B,48.45263372410953,40.37818044137456,2.422631686205477,0.6342589751997268,B,806.202250008937,Correct,sub_003_day_24_data.csv,1,600,,Button-Switch at home,,,,,,,,,,,,,d
3,24,880,B,68.90281871995155,39.00742402747387,3.4451409359975775,0.6127271838008693,B,629.4237920083106,Correct,sub_003_day_24_data.csv,1,600,,Button-Switch at home,,,,,,,,,,,,,d
3,24,881,B,36.94568750802718,20.142014654613945,1.8472843754013588,0.3163900263371656,B,571.5860830387101,Correct,sub_003_day_24_data.csv,1,600,,Button-Switch at home,,,,,,,,,,,,,d
3,24,882,B,67.51330889571639,43.776101498450785,3.375665444785819,0.6876333943516706,B,513.2075829897076,Correct,sub_003_day_24_data.csv,1,600,,Button-Switch at home,,,,,,,,,,,,,d
3,24,883,B,59.57286014633672,32.09875589846481,2.978643007316836,0.5042060785999454,B,538.769582984969,Correct,sub_003_day_24_data.csv,1,600,,Button-Switch at home,,,,,,,,,,,,,d
3,24,884,A,34.919898546104626,45.16787518447752,1.745994927305231,0.7094953242890765,A,1413.31379202893,Correct,sub_003_day_24_data.csv,1,600,,Button-Switch at home,,,,,,,,,,,,,k
3,24,885,B,39.315794477391506,22.768651167976515,1.9657897238695752,0.3576491362073183,B,579.6138750156388,Correct,sub_003_day_24_data.csv,1,600,,Button-Switch at home,,,,,,,,,,,,,d
3,24,886,B,40.437938094473154,16.887116467377556,2.0218969047236577,0.2652622051711428,B,927.9867919976824,Correct,sub_003_day_24_data.csv,1,600,,Button-Switch at home,,,,,,,,,,,,,d
3,24,887,A,49.151754872153376,59.265465110443856,2.457587743607669,0.9309397490127632,A,942.5726659828796,Correct,sub_003_day_24_data.csv,1,600,,Button-Switch at home,,,,,,,,,,,,,k
3,24,888,B,78.38997759962677,65.21170368111888,3.919498879981339,1.0243430460633876,B,1526.6613750136455,Correct,sub_003_day_24_data.csv,1,600,,Button-Switch at home,,,,,,,,,,,,,d
3,24,889,B,46.34682578056621,16.888423679683566,2.3173412890283105,0.265282738814029,B,570.5616670311429,Correct,sub_003_day_24_data.csv,1,600,,Button-Switch at home,,,,,,,,,,,,,d
3,24,890,B,55.91991323428485,38.66073838613862,2.7959956617142425,0.60728145848125,B,608.0072090262547,Correct,sub_003_day_24_data.csv,1,600,,Button-Switch at home,,,,,,,,,,,,,d
3,24,891,A,13.938508045663998,39.36538912483625,0.6969254022831999,0.6183500864014454,A,967.9964170209132,Correct,sub_003_day_24_data.csv,1,600,,Button-Switch at home,,,,,,,,,,,,,k
3,24,892,B,87.57266707102393,60.69195106766952,4.378633353551197,0.9533469380311088,B,2113.915125024505,Correct,sub_003_day_24_data.csv,1,600,,Button-Switch at home,,,,,,,,,,,,,d
3,24,893,A,46.70917075959077,73.68962449328426,2.3354585379795383,1.1575139147694613,A,2372.7007090346888,Correct,sub_003_day_24_data.csv,1,600,,Button-Switch at home,,,,,,,,,,,,,k
3,24,894,A,35.4557289649832,58.40531345940787,1.77278644824916,0.9174285184734242,A,879.4289579964243,Correct,sub_003_day_24_data.csv,1,600,,Button-Switch at home,,,,,,,,,,,,,k
3,24,895,A,17.119844793122276,33.25591175162327,0.8559922396561137,0.5223826402366507,A,770.2493750257418,Correct,sub_003_day_24_data.csv,1,600,,Button-Switch at home,,,,,,,,,,,,,k
3,24,896,B,77.8779995095021,64.22392643695986,3.893899975475106,1.008827077395222,B,515.6391250202432,Correct,sub_003_day_24_data.csv,1,600,,Button-Switch at home,,,,,,,,,,,,,d
3,24,897,A,49.929618100713995,65.47688065008535,2.4964809050356997,1.0285084361514192,A,793.4797500493005,Correct,sub_003_day_24_data.csv,1,600,,Button-Switch at home,,,,,,,,,,,,,k
3,24,898,A,14.009677391987449,37.32333049453956,0.7004838695993725,0.5862735044457469,A,545.9877919638529,Correct,sub_003_day_24_data.csv,1,600,,Button-Switch at home,,,,,,,,,,,,,k
3,24,899,A,27.28812758420892,43.031375655539605,1.364406379210446,0.6759352681665294,A,1074.133666988928,Correct,sub_003_day_24_data.csv,1,600,,Button-Switch at home,,,,,,,,,,,,,k
3,24,900,A,64.25679545427471,86.87759556598249,3.212839772713735,1.3646700799581788,A,655.9510410297662,Correct,sub_003_day_24_data.csv,1,600,,Button-Switch at home,,,,,,,,,,,,,k
3,24,901,A,50.60112904429501,66.75260160446501,2.5300564522147506,1.0485474140429676,A,788.7500830111094,Correct,sub_003_day_24_data.csv,1,600,,Button-Switch at home,,,,,,,,,,,,,k
3,24,902,B,39.40570664409353,21.439483506174252,1.9702853322046765,0.3367706193987828,B,833.183332986664,Correct,sub_003_day_24_data.csv,1,600,,Button-Switch at home,,,,,,,,,,,,,d
3,24,903,A,42.65093461254939,56.95779286754939,2.1325467306274697,0.8946909181869114,A,945.141792006325,Correct,sub_003_day_24_data.csv,1,600,,Button-Switch at home,,,,,,,,,,,,,k
3,24,904,B,51.005981886073485,24.510368974357664,2.550299094303674,0.3850079755330862,B,579.0392080089077,Correct,sub_003_day_24_data.csv,1,600,,Button-Switch at home,,,,,,,,,,,,,d
3,24,905,B,60.67091620946789,41.596119502652726,3.0335458104733948,0.6533903172368847,B,564.38233301742,Correct,sub_003_day_24_data.csv,1,600,,Button-Switch at home,,,,,,,,,,,,,d
3,24,906,B,68.45450655261752,48.78087351082783,3.422725327630876,0.7662481692865483,B,568.751833983697,Correct,sub_003_day_24_data.csv,1,600,,Button-Switch at home,,,,,,,,,,,,,d
3,24,907,B,78.70696354809073,54.83677697027289,3.935348177404536,0.8613740783817564,B,764.1338750254363,Correct,sub_003_day_24_data.csv,1,600,,Button-Switch at home,,,,,,,,,,,,,d
3,24,908,A,40.67740450036081,58.77642917999831,2.0338702250180405,0.9232579905806172,A,1144.743874960113,Correct,sub_003_day_24_data.csv,1,600,,Button-Switch at home,,,,,,,,,,,,,k
3,24,909,A,31.70017966409181,48.65522946334815,1.5850089832045904,0.764274557203901,A,864.6077079465613,Correct,sub_003_day_24_data.csv,1,600,,Button-Switch at home,,,,,,,,,,,,,k
3,24,910,B,35.827988529458295,24.50604521511479,1.791399426472915,0.3849400580817196,A,935.9535839757882,Incorrect,sub_003_day_24_data.csv,0,600,,Button-Switch at home,,,,,,,,,,,,,k
3,24,911,B,70.59336940052957,50.72599292009585,3.5296684700264787,0.7968020335191048,B,537.4012080137618,Correct,sub_003_day_24_data.csv,1,600,,Button-Switch at home,,,,,,,,,,,,,d
3,24,912,A,56.07406142575638,66.39926951065281,2.8037030712878193,1.042997286491978,A,1688.0672920378856,Correct,sub_003_day_24_data.csv,1,600,,Button-Switch at home,,,,,,,,,,,,,k
3,24,913,A,31.13121691074181,42.739224643632795,1.5565608455370905,0.6713461708028031,A,852.0462500164285,Correct,sub_003_day_24_data.csv,1,600,,Button-Switch at home,,,,,,,,,,,,,k
3,24,914,B,37.81724458028256,14.032137053036791,1.890862229014128,0.2204162933999275,B,603.744333027862,Correct,sub_003_day_24_data.csv,1,600,,Button-Switch at home,,,,,,,,,,,,,d
3,24,915,B,47.89015743162396,19.159212069682138,2.394507871581198,0.3009521994334115,B,543.4859579545446,Correct,sub_003_day_24_data.csv,1,600,,Button-Switch at home,,,,,,,,,,,,,d
3,24,916,A,56.50805131507617,81.00292893215294,2.8254025657538087,1.272391032262539,A,506.6318340250291,Correct,sub_003_day_24_data.csv,1,600,,Button-Switch at home,,,,,,,,,,,,,k
3,24,917,A,44.293789469035914,74.50910897172206,2.214689473451796,1.1703863468554168,A,481.95175000000745,Correct,sub_003_day_24_data.csv,1,600,,Button-Switch at home,,,,,,,,,,,,,k
3,24,918,B,57.38512503859334,40.34707680492623,2.8692562519296665,0.6337704004208969,B,566.382207965944,Correct,sub_003_day_24_data.csv,1,600,,Button-Switch at home,,,,,,,,,,,,,d
3,24,919,B,54.69588923025711,46.1847728065046,2.734794461512855,0.7254687147831425,B,590.061541995965,Correct,sub_003_day_24_data.csv,1,600,,Button-Switch at home,,,,,,,,,,,,,d
3,24,920,A,12.496562872052236,37.69344080263019,0.6248281436026119,0.5920871835703239,A,577.2034580004402,Correct,sub_003_day_24_data.csv,1,600,,Button-Switch at home,,,,,,,,,,,,,k
3,24,921,A,22.78244159483596,52.92484270193247,1.139122079741798,0.831341485123932,A,811.1400419729762,Correct,sub_003_day_24_data.csv,1,600,,Button-Switch at home,,,,,,,,,,,,,k
3,24,922,A,22.343869309474073,35.683811045085434,1.1171934654737037,0.5605199931566336,A,690.5546250054613,Correct,sub_003_day_24_data.csv,1,600,,Button-Switch at home,,,,,,,,,,,,,k
3,24,923,A,35.07812046935774,63.32646132140586,1.7539060234678872,0.9947297283258342,A,476.22237500036135,Correct,sub_003_day_24_data.csv,1,600,,Button-Switch at home,,,,,,,,,,,,,k
3,24,924,A,52.87628421940572,78.5831341818755,2.6438142109702856,1.2343809852092051,A,727.0304170087911,Correct,sub_003_day_24_data.csv,1,600,,Button-Switch at home,,,,,,,,,,,,,k
3,24,925,A,22.47759081090311,44.23117395856558,1.1238795405451554,0.694781655839409,A,528.3467500121333,Correct,sub_003_day_24_data.csv,1,600,,Button-Switch at home,,,,,,,,,,,,,k
3,24,926,B,69.835681285761,41.09198958808496,3.4917840642880495,0.6454714630565798,B,604.5266250148416,Correct,sub_003_day_24_data.csv,1,600,,Button-Switch at home,,,,,,,,,,,,,d
3,24,927,B,63.82227126392052,34.03928826525664,3.191113563196026,0.5346878897377776,B,655.0191250280477,Correct,sub_003_day_24_data.csv,1,600,,Button-Switch at home,,,,,,,,,,,,,d
3,24,928,B,44.31981774378226,16.872989447521615,2.215990887189113,0.26504029846216,B,1108.3560839761049,Correct,sub_003_day_24_data.csv,1,600,,Button-Switch at home,,,,,,,,,,,,,d
3,24,929,A,36.29184546881616,59.04087155819592,1.814592273440808,0.9274118417438344,A,755.3002500208095,Correct,sub_003_day_24_data.csv,1,600,,Button-Switch at home,,,,,,,,,,,,,k
3,24,930,B,63.39946135697061,50.04697768108842,3.1699730678485305,0.7861360870863986,B,538.2745420210995,Correct,sub_003_day_24_data.csv,1,600,,Button-Switch at home,,,,,,,,,,,,,d
3,24,931,B,89.52658979102914,65.48461174152638,4.476329489551457,1.028629875851796,B,781.5151659888215,Correct,sub_003_day_24_data.csv,1,600,,Button-Switch at home,,,,,,,,,,,,,d
3,24,932,B,41.06880432886967,14.139749968057902,2.0534402164434833,0.2221066731162361,B,494.866875000298,Correct,sub_003_day_24_data.csv,1,600,,Button-Switch at home,,,,,,,,,,,,,d
3,24,933,A,56.84758979507727,81.40395332496843,2.8423794897538635,1.278690308694436,A,580.732208036352,Correct,sub_003_day_24_data.csv,1,600,,Button-Switch at home,,,,,,,,,,,,,k
3,24,934,B,86.28427681414598,61.86752974282443,4.314213840707299,0.9718128846790264,B,555.8606659760699,Correct,sub_003_day_24_data.csv,1,600,,Button-Switch at home,,,,,,,,,,,,,d
3,24,935,B,59.12204916336755,50.66717060048305,2.9561024581683775,0.7958780546832915,B,1331.237834005151,Correct,sub_003_day_24_data.csv,1,600,,Button-Switch at home,,,,,,,,,,,,,d
3,24,936,B,55.39598960282227,46.45925031152801,2.7697994801411134,0.7297801973499285,B,874.2264999891631,Correct,sub_003_day_24_data.csv,1,600,,Button-Switch at home,,,,,,,,,,,,,d
3,24,937,A,12.39751019340357,33.87148234018777,0.6198755096701785,0.5320520004306515,A,613.3761660312302,Correct,sub_003_day_24_data.csv,1,600,,Button-Switch at home,,,,,,,,,,,,,k
3,24,938,B,39.20952874463507,19.396984502172185,1.9604764372317536,0.304687120069096,B,518.2912080199458,Correct,sub_003_day_24_data.csv,1,600,,Button-Switch at home,,,,,,,,,,,,,d
3,24,939,A,51.08919201963097,65.15134080922573,2.554459600981549,1.0233948682889422,A,677.0856250077486,Correct,sub_003_day_24_data.csv,1,600,,Button-Switch at home,,,,,,,,,,,,,k
3,24,940,A,31.041833873393013,49.78607536901744,1.5520916936696505,0.7820378431518646,A,525.4833750077523,Correct,sub_003_day_24_data.csv,1,600,,Button-Switch at home,,,,,,,,,,,,,k
3,24,941,A,22.207926774791257,41.75805423438336,1.110396338739563,0.6559339820547144,B,523.3898750157095,Incorrect,sub_003_day_24_data.csv,0,600,,Button-Switch at home,,,,,,,,,,,,,d
3,24,942,A,39.77765742908522,64.87566830180782,1.988882871454261,1.0190646146684383,A,523.5490830382332,Correct,sub_003_day_24_data.csv,1,600,,Button-Switch at home,,,,,,,,,,,,,k
3,24,943,A,15.971462530910912,42.95383403257162,0.7985731265455456,0.6747172472012112,A,2317.106375005096,Correct,sub_003_day_24_data.csv,1,600,,Button-Switch at home,,,,,,,,,,,,,k
3,24,944,B,70.12004011352633,50.95030403642701,3.5060020056763164,0.8003255042950274,B,549.1900829947554,Correct,sub_003_day_24_data.csv,1,600,,Button-Switch at home,,,,,,,,,,,,,d
3,24,945,B,37.33771729421058,19.53319655240284,1.8668858647105289,0.3068267339507712,B,1312.0921659865417,Correct,sub_003_day_24_data.csv,1,600,,Button-Switch at home,,,,,,,,,,,,,d
3,24,946,B,59.53005281090867,39.71478051941647,2.9765026405454336,0.623838313593649,B,633.2671669661067,Correct,sub_003_day_24_data.csv,1,600,,Button-Switch at home,,,,,,,,,,,,,d
3,24,947,B,63.44239562175091,47.11157717062152,3.1721197810875457,0.740026923691266,B,612.1800830005668,Correct,sub_003_day_24_data.csv,1,600,,Button-Switch at home,,,,,,,,,,,,,d
3,24,948,B,31.349580629975645,14.846581091924712,1.5674790314987823,0.2332095504465789,B,583.4452089620754,Correct,sub_003_day_24_data.csv,1,600,,Button-Switch at home,,,,,,,,,,,,,d
3,24,949,B,38.8630261237775,25.543532515824,1.943151306188875,0.4012368704922234,B,544.3361669895239,Correct,sub_003_day_24_data.csv,1,600,,Button-Switch at home,,,,,,,,,,,,,d
3,24,950,B,35.44834244149254,12.364066925210093,1.7724171220746272,0.1942143091036628,B,586.1438339925371,Correct,sub_003_day_24_data.csv,1,600,,Button-Switch at home,,,,,,,,,,,,,d
3,24,951,B,57.23446612864048,37.237538369172306,2.861723306432024,0.5849258848917988,B,444.49016702128574,Correct,sub_003_day_24_data.csv,1,600,,Button-Switch at home,,,,,,,,,,,,,d
3,24,952,A,62.67162215062834,77.4382545007896,3.1335811075314166,1.2163972572324868,A,570.9195839590393,Correct,sub_003_day_24_data.csv,1,600,,Button-Switch at home,,,,,,,,,,,,,k
3,24,953,B,33.3520452130814,12.251523936146064,1.66760226065407,0.1924464879653799,B,495.8880829508416,Correct,sub_003_day_24_data.csv,1,600,,Button-Switch at home,,,,,,,,,,,,,d
3,24,954,A,51.29396766528869,66.44243878166056,2.5646983832644343,1.043675387815272,A,1065.156124997884,Correct,sub_003_day_24_data.csv,1,600,,Button-Switch at home,,,,,,,,,,,,,k
3,24,955,B,76.40549690189914,49.847600485537605,3.820274845094957,0.7830042774222198,B,505.2630840218626,Correct,sub_003_day_24_data.csv,1,600,,Button-Switch at home,,,,,,,,,,,,,d
3,24,956,A,43.46691904402957,71.59079677719707,2.1733459522014784,1.124545606099411,A,765.2996669639833,Correct,sub_003_day_24_data.csv,1,600,,Button-Switch at home,,,,,,,,,,,,,k
3,24,957,A,25.232529914057903,57.500381796326785,1.261626495702895,0.9032138851497424,A,729.6226249891333,Correct,sub_003_day_24_data.csv,1,600,,Button-Switch at home,,,,,,,,,,,,,k
3,24,958,A,46.74325163929077,54.40016940348576,2.3371625819645385,0.8545158627601555,B,640.6877500121482,Incorrect,sub_003_day_24_data.csv,0,600,,Button-Switch at home,,,,,,,,,,,,,d
3,24,959,A,31.796470083634603,57.10864057726656,1.58982350418173,0.897060428470203,A,1310.1578329806216,Correct,sub_003_day_24_data.csv,1,600,,Button-Switch at home,,,,,,,,,,,,,k
3,24,960,B,63.25454679868145,32.633454200250156,3.1627273399340727,0.5126050998838244,B,559.115040989127,Correct,sub_003_day_24_data.csv,1,600,,Button-Switch at home,,,,,,,,,,,,,d
3,24,961,B,81.37075175956942,51.984814113827426,4.068537587978471,0.816575550591156,B,619.2681670072488,Correct,sub_003_day_24_data.csv,1,600,,Button-Switch at home,,,,,,,,,,,,,d
3,24,962,A,15.622810563265944,43.76307552440676,0.7811405281632972,0.6874287828298578,A,554.2638750048354,Correct,sub_003_day_24_data.csv,1,600,,Button-Switch at home,,,,,,,,,,,,,k
3,24,963,B,79.04763227123748,62.87566516554257,3.952381613561874,0.9876486388682012,B,484.5479580108076,Correct,sub_003_day_24_data.csv,1,600,,Button-Switch at home,,,,,,,,,,,,,d
3,24,964,A,26.552881559431512,38.28024907223486,1.3276440779715757,0.6013047463146026,A,503.1374999671243,Correct,sub_003_day_24_data.csv,1,600,,Button-Switch at home,,,,,,,,,,,,,k
3,24,965,B,72.20697316596622,56.14007093831752,3.610348658298311,0.8818461721591407,B,603.3743749721907,Correct,sub_003_day_24_data.csv,1,600,,Button-Switch at home,,,,,,,,,,,,,d
3,24,966,B,52.24584766617082,40.86085146631245,2.6122923833085405,0.6418407539299547,B,1058.3759999717586,Correct,sub_003_day_24_data.csv,1,600,,Button-Switch at home,,,,,,,,,,,,,d
3,24,967,A,41.3211811442511,54.972322185258975,2.0660590572125552,0.863503217639904,A,658.4165000240318,Correct,sub_003_day_24_data.csv,1,600,,Button-Switch at home,,,,,,,,,,,,,k
3,24,968,A,47.78268329494568,56.58290175612915,2.389134164747284,0.8888021423792416,A,1234.4488329836167,Correct,sub_003_day_24_data.csv,1,600,,Button-Switch at home,,,,,,,,,,,,,k
3,24,969,A,21.10961155785736,50.227313905216995,1.055480577892868,0.7889688018708909,A,959.5292920130304,Correct,sub_003_day_24_data.csv,1,600,,Button-Switch at home,,,,,,,,,,,,,k
3,24,970,B,35.289966828142894,16.34310346023848,1.764498341407145,0.2567168688377157,B,1405.758415989112,Correct,sub_003_day_24_data.csv,1,600,,Button-Switch at home,,,,,,,,,,,,,d
3,24,971,A,30.664650308219283,56.07044079488601,1.5332325154109645,0.8807524244237767,A,824.4682080112398,Correct,sub_003_day_24_data.csv,1,600,,Button-Switch at home,,,,,,,,,,,,,k
3,24,972,A,69.47312091986409,86.72235526675337,3.473656045993204,1.3622315710401824,A,707.7202920336276,Correct,sub_003_day_24_data.csv,1,600,,Button-Switch at home,,,,,,,,,,,,,k
3,24,973,A,18.368289010087096,48.516540725969435,0.9184144505043548,0.7620960396114778,A,755.5247910204343,Correct,sub_003_day_24_data.csv,1,600,,Button-Switch at home,,,,,,,,,,,,,k
3,24,974,A,31.5658980005192,63.3941806723068,1.57829490002596,0.9957934614023152,A,729.457542009186,Correct,sub_003_day_24_data.csv,1,600,,Button-Switch at home,,,,,,,,,,,,,k
3,24,975,B,62.75085343912849,31.148937761321235,3.137542671956425,0.4892863701904624,B,443.1214169599116,Correct,sub_003_day_24_data.csv,1,600,,Button-Switch at home,,,,,,,,,,,,,d
3,24,976,A,37.47172478348002,54.86070183765418,1.873586239174001,0.8617498893197721,A,1884.2236250056883,Correct,sub_003_day_24_data.csv,1,600,,Button-Switch at home,,,,,,,,,,,,,k
3,24,977,B,53.188114927479134,25.023452109533046,2.659405746373957,0.3930674665738252,B,557.699249999132,Correct,sub_003_day_24_data.csv,1,600,,Button-Switch at home,,,,,,,,,,,,,d
3,24,978,A,40.00850944470955,57.962923819215234,2.0004254722354777,0.910479478255157,A,780.83299996797,Correct,sub_003_day_24_data.csv,1,600,,Button-Switch at home,,,,,,,,,,,,,k
3,24,979,A,29.90538010788692,39.03112483402769,1.4952690053943458,0.6130994751996377,A,718.3929579914548,Correct,sub_003_day_24_data.csv,1,600,,Button-Switch at home,,,,,,,,,,,,,k
3,24,980,B,75.00491543884867,46.68943109911554,3.7502457719424336,0.733395868706341,B,710.3406670503318,Correct,sub_003_day_24_data.csv,1,600,,Button-Switch at home,,,,,,,,,,,,,d
3,24,981,A,35.526293462712886,55.76409994665005,1.7763146731356445,0.875940433632214,A,618.190000008326,Correct,sub_003_day_24_data.csv,1,600,,Button-Switch at home,,,,,,,,,,,,,k
3,24,982,B,34.942256368486824,17.868794208432455,1.7471128184243412,0.2806823630685962,B,591.9097500154749,Correct,sub_003_day_24_data.csv,1,600,,Button-Switch at home,,,,,,,,,,,,,d
3,24,983,B,57.08735853520106,28.04916208792907,2.8543679267600535,0.4405952077739364,B,556.0825419961475,Correct,sub_003_day_24_data.csv,1,600,,Button-Switch at home,,,,,,,,,,,,,d
3,24,984,B,39.39844190391882,26.825603222740988,1.969922095195941,0.4213755900633887,B,471.1257499875501,Correct,sub_003_day_24_data.csv,1,600,,Button-Switch at home,,,,,,,,,,,,,d
3,24,985,A,34.973423751090706,64.16304632548487,1.748671187554535,1.007870774840424,A,546.3530840352178,Correct,sub_003_day_24_data.csv,1,600,,Button-Switch at home,,,,,,,,,,,,,k
3,24,986,B,84.76186841833602,60.68016953636966,4.238093420916801,0.9531618741702106,B,605.2568749873899,Correct,sub_003_day_24_data.csv,1,600,,Button-Switch at home,,,,,,,,,,,,,d
3,24,987,B,81.2545643782474,61.74986918620119,4.06272821891237,0.969964676977502,B,556.6073330119252,Correct,sub_003_day_24_data.csv,1,600,,Button-Switch at home,,,,,,,,,,,,,d
3,24,988,A,15.579128681719478,37.147234676449834,0.7789564340859739,0.583507397803554,A,477.0326660363935,Correct,sub_003_day_24_data.csv,1,600,,Button-Switch at home,,,,,,,,,,,,,k
3,24,989,A,54.93241484491846,69.19966433643734,2.746620742245923,1.0869857855511558,A,1001.623957999982,Correct,sub_003_day_24_data.csv,1,600,,Button-Switch at home,,,,,,,,,,,,,k
3,24,990,B,36.0927820613589,20.779746849571115,1.804639103067945,0.3264075002303412,B,753.8806250086054,Correct,sub_003_day_24_data.csv,1,600,,Button-Switch at home,,,,,,,,,,,,,d
3,24,991,B,52.77336320738354,44.216866929858504,2.638668160369177,0.6945569215580047,B,840.5617080279626,Correct,sub_003_day_24_data.csv,1,600,,Button-Switch at home,,,,,,,,,,,,,d
3,24,992,B,54.78898261276737,47.275584693167545,2.7394491306383686,0.7426031478310862,B,471.18558402871713,Correct,sub_003_day_24_data.csv,1,600,,Button-Switch at home,,,,,,,,,,,,,d
3,24,993,B,65.95743654497353,45.60452107763061,3.2978718272486764,0.716354141939826,B,545.7538749906234,Correct,sub_003_day_24_data.csv,1,600,,Button-Switch at home,,,,,,,,,,,,,d
3,24,994,A,26.767236776219097,54.70738419883089,1.3383618388109548,0.8593415814808072,A,567.3468749737367,Correct,sub_003_day_24_data.csv,1,600,,Button-Switch at home,,,,,,,,,,,,,k
3,24,995,A,24.59470158535544,38.72879997479337,1.229735079267772,0.6083505674157971,A,722.5610840250738,Correct,sub_003_day_24_data.csv,1,600,,Button-Switch at home,,,,,,,,,,,,,k
3,24,996,B,76.57653220199353,60.11462223805767,3.828826610099677,0.944278277982038,B,662.4271250329912,Correct,sub_003_day_24_data.csv,1,600,,Button-Switch at home,,,,,,,,,,,,,d
3,24,997,A,47.78580852346881,66.87915062864818,2.3892904261734405,1.0505352414664313,A,569.2333749611862,Correct,sub_003_day_24_data.csv,1,600,,Button-Switch at home,,,,,,,,,,,,,k
3,24,998,A,54.388712679626366,65.8695742488303,2.719435633981318,1.0346768527760637,A,680.6091250036843,Correct,sub_003_day_24_data.csv,1,600,,Button-Switch at home,,,,,,,,,,,,,k
3,24,999,A,24.26520477201903,50.88362564368895,1.2132602386009514,0.7992781225511321,B,551.892708055675,Incorrect,sub_003_day_24_data.csv,0,600,,Button-Switch at home,,,,,,,,,,,,,d
3,24,1000,B,72.9375419441986,56.93227361990926,3.64687709720993,0.8942900627823545,B,609.8907500272617,Correct,sub_003_day_24_data.csv,1,600,,Button-Switch at home,,,,,,,,,,,,,d
3,24,1001,A,22.166868274015744,42.06132211490038,1.1083434137007873,0.6606977027822246,A,540.2638340019621,Correct,sub_003_day_24_data.csv,1,600,,Button-Switch at home,,,,,,,,,,,,,k
3,24,1002,A,48.341216963948895,69.80583262407798,2.417060848197445,1.0965074547476106,A,806.7722920095548,Correct,sub_003_day_24_data.csv,1,600,,Button-Switch at home,,,,,,,,,,,,,k
3,24,1003,B,79.99761452692377,50.132829153886775,3.9998807263461886,0.7874846388676144,B,601.2507080449723,Correct,sub_003_day_24_data.csv,1,600,,Button-Switch at home,,,,,,,,,,,,,d
3,24,1004,A,52.499487231812545,64.79835574371823,2.624974361590627,1.0178501918458158,A,3441.3247920456342,Correct,sub_003_day_24_data.csv,1,600,,Button-Switch at home,,,,,,,,,,,,,k
3,24,1005,A,37.79102967365429,47.79444719953035,1.8895514836827147,0.750753421022149,A,1584.6700409892946,Correct,sub_003_day_24_data.csv,1,600,,Button-Switch at home,,,,,,,,,,,,,k
3,24,1006,B,46.478917839727394,36.28313349370866,2.32394589198637,0.5699341281652646,B,2056.8777910084464,Correct,sub_003_day_24_data.csv,1,600,,Button-Switch at home,,,,,,,,,,,,,d
3,24,1007,A,40.907415291280095,54.68101313039677,2.0453707645640047,0.8589273457065074,A,1542.4070000299253,Correct,sub_003_day_24_data.csv,1,600,,Button-Switch at home,,,,,,,,,,,,,k
3,24,1008,B,71.75491659136145,41.81475399876738,3.5877458295680724,0.6568246198709601,B,554.8007499892265,Correct,sub_003_day_24_data.csv,1,600,,Button-Switch at home,,,,,,,,,,,,,d
3,24,1009,A,40.56623827573056,63.081683409091255,2.028311913786528,0.9908847658703912,A,689.1113750170916,Correct,sub_003_day_24_data.csv,1,600,,Button-Switch at home,,,,,,,,,,,,,k
3,24,1010,A,52.0299214710067,61.321200121388806,2.6014960735503347,0.9632311590533232,A,2702.2054579574615,Correct,sub_003_day_24_data.csv,1,600,,Button-Switch at home,,,,,,,,,,,,,k
3,24,1011,A,47.13605529922806,68.70808440621708,2.356802764961403,1.079264066063995,A,744.283624982927,Correct,sub_003_day_24_data.csv,1,600,,Button-Switch at home,,,,,,,,,,,,,k
3,24,1012,A,40.414591246345445,59.22967101772236,2.0207295623172725,0.9303774967190842,A,1529.0629580267705,Correct,sub_003_day_24_data.csv,1,600,,Button-Switch at home,,,,,,,,,,,,,k
3,24,1013,A,37.44878738023923,56.780551972646485,1.8724393690119616,0.891906824720198,A,795.9999580052681,Correct,sub_003_day_24_data.csv,1,600,,Button-Switch at home,,,,,,,,,,,,,k
3,24,1014,A,58.969969987662495,85.48563709839294,2.9484984993831245,1.3428052474787715,A,498.13358299434185,Correct,sub_003_day_24_data.csv,1,600,,Button-Switch at home,,,,,,,,,,,,,k
3,24,1015,A,18.19790460902517,35.60124032956462,0.9098952304512582,0.5592229753902244,A,504.6681249514222,Correct,sub_003_day_24_data.csv,1,600,,Button-Switch at home,,,,,,,,,,,,,k
3,24,1016,B,42.42632420466946,32.613514214010344,2.121316210233473,0.5122918833124059,A,1092.967459000647,Incorrect,sub_003_day_24_data.csv,0,600,,Button-Switch at home,,,,,,,,,,,,,k
3,24,1017,A,51.3505028215677,74.54115771021007,2.5675251410783853,1.1708897672623706,A,569.8465839959681,Correct,sub_003_day_24_data.csv,1,600,,Button-Switch at home,,,,,,,,,,,,,k
3,24,1018,B,54.19620666793412,22.318666904816617,2.709810333396706,0.3505807999304476,B,534.0637500048615,Correct,sub_003_day_24_data.csv,1,600,,Button-Switch at home,,,,,,,,,,,,,d
3,24,1019,B,57.3133337137711,47.346127015548184,2.865666685688555,0.7437112240398771,B,699.0376249887049,Correct,sub_003_day_24_data.csv,1,600,,Button-Switch at home,,,,,,,,,,,,,d
3,24,1020,B,66.03584584104493,50.48181146376388,3.3017922920522467,0.7929664401723282,B,486.16849997779354,Correct,sub_003_day_24_data.csv,1,600,,Button-Switch at home,,,,,,,,,,,,,d
3,24,1021,A,37.32787404076768,55.39628634619886,1.866393702038384,0.8701628311068745,A,705.5146250058897,Correct,sub_003_day_24_data.csv,1,600,,Button-Switch at home,,,,,,,,,,,,,k
3,24,1022,B,77.2900274436863,53.76238219857355,3.864501372184315,0.8444975247726266,B,559.0081670088693,Correct,sub_003_day_24_data.csv,1,600,,Button-Switch at home,,,,,,,,,,,,,d
3,24,1023,B,74.35683081681016,50.747774078334984,3.717841540840508,0.7971441711526587,B,514.0506249736063,Correct,sub_003_day_24_data.csv,1,600,,Button-Switch at home,,,,,,,,,,,,,d
3,24,1024,B,88.41341387804587,66.44137630967471,4.420670693902293,1.0436586985443448,B,703.9545000297949,Correct,sub_003_day_24_data.csv,1,600,,Button-Switch at home,,,,,,,,,,,,,d
3,24,1025,B,39.29632469197348,24.043847539370677,1.9648162345986744,0.3776798739685997,B,550.7754160207696,Correct,sub_003_day_24_data.csv,1,600,,Button-Switch at home,,,,,,,,,,,,,d
3,24,1026,B,33.36851323773598,17.025004264189338,1.6684256618867992,0.2674281416185606,B,535.0466250092722,Correct,sub_003_day_24_data.csv,1,600,,Button-Switch at home,,,,,,,,,,,,,d
3,24,1027,A,57.04838027415413,73.35316414829175,2.8524190137077063,1.1522288080291978,A,584.7733339760453,Correct,sub_003_day_24_data.csv,1,600,,Button-Switch at home,,,,,,,,,,,,,k
3,24,1028,A,54.14377457153723,76.83223817105349,2.7071887285768614,1.2068779749852148,A,563.9734999858774,Correct,sub_003_day_24_data.csv,1,600,,Button-Switch at home,,,,,,,,,,,,,k
3,24,1029,A,18.790385494751668,41.923430326238446,0.9395192747375832,0.6585317036309712,A,731.5458750235848,Correct,sub_003_day_24_data.csv,1,600,,Button-Switch at home,,,,,,,,,,,,,k
3,24,1030,A,18.8146703411818,40.859119684847215,0.94073351705909,0.6418135511703105,A,682.3255420313217,Correct,sub_003_day_24_data.csv,1,600,,Button-Switch at home,,,,,,,,,,,,,k
3,24,1031,B,51.49008526680146,22.346764884014068,2.5745042633400725,0.3510221619555848,B,534.4632919877768,Correct,sub_003_day_24_data.csv,1,600,,Button-Switch at home,,,,,,,,,,,,,d
3,24,1032,A,17.36854927066868,35.087528140884515,0.868427463533434,0.5511536032001396,A,521.5586670092307,Correct,sub_003_day_24_data.csv,1,600,,Button-Switch at home,,,,,,,,,,,,,k
3,24,1033,B,64.6961415339484,47.159550617662745,3.2348070766974204,0.7407804888352264,B,786.7298749624752,Correct,sub_003_day_24_data.csv,1,600,,Button-Switch at home,,,,,,,,,,,,,d
3,24,1034,A,39.78853415013045,49.56706999458691,1.9894267075065224,0.7785977147748266,A,823.8497920101508,Correct,sub_003_day_24_data.csv,1,600,,Button-Switch at home,,,,,,,,,,,,,k
3,24,1035,A,38.06515846743144,59.13984125281299,1.903257923371572,0.9289664540715192,A,815.709708025679,Correct,sub_003_day_24_data.csv,1,600,,Button-Switch at home,,,,,,,,,,,,,k
3,24,1036,B,47.295301190184,30.26553476318062,2.3647650595092,0.4754099083448737,B,468.2207500445657,Correct,sub_003_day_24_data.csv,1,600,,Button-Switch at home,,,,,,,,,,,,,d
3,24,1037,A,38.21573702593402,53.666428049683354,1.9107868512967008,0.8429902805264523,A,749.9802499660291,Correct,sub_003_day_24_data.csv,1,600,,Button-Switch at home,,,,,,,,,,,,,k
3,24,1038,A,35.94176252010416,59.08974178011535,1.797088126005208,0.9281794933946412,A,601.3214999693446,Correct,sub_003_day_24_data.csv,1,600,,Button-Switch at home,,,,,,,,,,,,,k
3,24,1039,B,41.24477982102152,23.978831742380315,2.062238991051076,0.3766586082176387,B,527.769582986366,Correct,sub_003_day_24_data.csv,1,600,,Button-Switch at home,,,,,,,,,,,,,d
3,24,1040,A,46.76131602223908,63.87667026950775,2.338065801111954,1.0033723902723155,A,748.4534170362167,Correct,sub_003_day_24_data.csv,1,600,,Button-Switch at home,,,,,,,,,,,,,k
3,24,1041,A,19.49119585155316,43.49992222952075,0.974559792577658,0.6832951805399488,A,692.9025829886086,Correct,sub_003_day_24_data.csv,1,600,,Button-Switch at home,,,,,,,,,,,,,k
3,24,1042,A,18.718750746300543,44.51857918662469,0.9359375373150272,0.699296206604778,A,737.315459002275,Correct,sub_003_day_24_data.csv,1,600,,Button-Switch at home,,,,,,,,,,,,,k
3,24,1043,B,57.30355181539163,33.74962015362099,2.865177590769582,0.5301377936803086,B,570.9565419820137,Correct,sub_003_day_24_data.csv,1,600,,Button-Switch at home,,,,,,,,,,,,,d
3,24,1044,A,47.152036873767706,76.50972957359787,2.357601843688385,1.201812021782784,A,574.9314579879865,Correct,sub_003_day_24_data.csv,1,600,,Button-Switch at home,,,,,,,,,,,,,k
3,24,1045,A,40.244887833977614,54.47208430048525,2.0122443916988804,0.8556454993206418,A,730.6916250381619,Correct,sub_003_day_24_data.csv,1,600,,Button-Switch at home,,,,,,,,,,,,,k
3,24,1046,B,60.075009000098994,42.34337379047106,3.00375045000495,0.6651281601417525,B,580.4683750029653,Correct,sub_003_day_24_data.csv,1,600,,Button-Switch at home,,,,,,,,,,,,,d
3,24,1047,A,42.660978653076214,69.92120370632264,2.1330489326538107,1.098319699469693,A,591.6708749718964,Correct,sub_003_day_24_data.csv,1,600,,Button-Switch at home,,,,,,,,,,,,,k
3,24,1048,B,86.58287666594201,69.13956264116061,4.329143833297101,1.0860417103294076,B,763.7907500029542,Correct,sub_003_day_24_data.csv,1,600,,Button-Switch at home,,,,,,,,,,,,,d
3,24,1049,A,35.78509545454893,65.14964436523942,1.7892547727274464,1.0233682206091193,A,554.2912079836242,Correct,sub_003_day_24_data.csv,1,600,,Button-Switch at home,,,,,,,,,,,,,k
3,24,1050,B,76.13193798171301,63.21942086407425,3.8065968990856502,0.9930483407538848,B,586.7587920511141,Correct,sub_003_day_24_data.csv,1,600,,Button-Switch at home,,,,,,,,,,,,,d
3,24,1051,B,81.11810833270775,67.55671434077587,4.055905416635387,1.0611783873682286,B,521.3724170462228,Correct,sub_003_day_24_data.csv,1,600,,Button-Switch at home,,,,,,,,,,,,,d
3,24,1052,A,36.288153017503994,52.41462858475031,1.8144076508751996,0.8233270605124459,A,766.2228330154903,Correct,sub_003_day_24_data.csv,1,600,,Button-Switch at home,,,,,,,,,,,,,k
3,24,1053,B,54.170785476408305,41.30455905708617,2.7085392738204153,0.6488104964675384,B,736.380708985962,Correct,sub_003_day_24_data.csv,1,600,,Button-Switch at home,,,,,,,,,,,,,d
3,24,1054,A,50.60677179141923,64.85022020129053,2.530338589570962,1.0186648768402735,A,932.5234580319376,Correct,sub_003_day_24_data.csv,1,600,,Button-Switch at home,,,,,,,,,,,,,k
3,24,1055,A,48.185928892895745,56.34691336668549,2.409296444644787,0.8850952454261984,A,652.2664580261335,Correct,sub_003_day_24_data.csv,1,600,,Button-Switch at home,,,,,,,,,,,,,k
3,24,1056,B,59.31657192798106,51.652033627822945,2.965828596399053,0.8113482469407076,B,572.5832910393365,Correct,sub_003_day_24_data.csv,1,600,,Button-Switch at home,,,,,,,,,,,,,d
3,24,1057,A,30.85199848342672,63.896586525009866,1.542599924171336,1.0036852340821778,A,592.1345420065336,Correct,sub_003_day_24_data.csv,1,600,,Button-Switch at home,,,,,,,,,,,,,k
3,24,1058,B,45.70020863286681,28.372791833480044,2.2850104316433404,0.4456787719294669,B,561.7891250294633,Correct,sub_003_day_24_data.csv,1,600,,Button-Switch at home,,,,,,,,,,,,,d
3,24,1059,A,59.865579276196534,79.62861705648108,2.9932789638098267,1.2508033918007793,A,671.8448749743402,Correct,sub_003_day_24_data.csv,1,600,,Button-Switch at home,,,,,,,,,,,,,k
3,24,1060,B,62.70154138233752,47.42007449324744,3.135077069116876,0.7448727883033344,B,527.0882089971565,Correct,sub_003_day_24_data.csv,1,600,,Button-Switch at home,,,,,,,,,,,,,d
3,24,1061,A,32.52705676592919,65.69740734834257,1.6263528382964594,1.0319724614272454,A,574.3543329881504,Correct,sub_003_day_24_data.csv,1,600,,Button-Switch at home,,,,,,,,,,,,,k
3,24,1062,A,38.433873228642064,68.11464198158019,1.9216936614321032,1.0699422942561565,A,632.5649169739336,Correct,sub_003_day_24_data.csv,1,600,,Button-Switch at home,,,,,,,,,,,,,k
3,24,1063,B,57.096522232391514,37.74126777084172,2.854826111619575,0.592838447830208,B,635.6187090277672,Correct,sub_003_day_24_data.csv,1,600,,Button-Switch at home,,,,,,,,,,,,,d
3,24,1064,B,81.14029293518132,68.24891084094956,4.057014646759066,1.0720513845671595,B,634.928708022926,Correct,sub_003_day_24_data.csv,1,600,,Button-Switch at home,,,,,,,,,,,,,d
3,24,1065,A,54.77803831426321,72.38708139984668,2.7389019157131607,1.1370536157028237,A,881.401791004464,Correct,sub_003_day_24_data.csv,1,600,,Button-Switch at home,,,,,,,,,,,,,k
3,24,1066,B,71.93315460098681,60.36788627433173,3.5966577300493405,0.9482565401609232,B,478.44754200195894,Correct,sub_003_day_24_data.csv,1,600,,Button-Switch at home,,,,,,,,,,,,,d
3,24,1067,A,38.31378918658001,45.94557720634003,1.9156894593290008,0.7217114390819024,A,737.3597080004402,Correct,sub_003_day_24_data.csv,1,600,,Button-Switch at home,,,,,,,,,,,,,k
3,24,1068,B,38.84364049681893,21.863850269751875,1.9421820248409465,0.3434365569331985,B,605.5012919823639,Correct,sub_003_day_24_data.csv,1,600,,Button-Switch at home,,,,,,,,,,,,,d
3,24,1069,A,55.17892584677677,68.81793691407358,2.7589462923388384,1.080989625222297,A,731.3312499900348,Correct,sub_003_day_24_data.csv,1,600,,Button-Switch at home,,,,,,,,,,,,,k
3,24,1070,B,45.58905687234444,20.892085851860223,2.279452843617222,0.3281721171518567,B,588.4520409745164,Correct,sub_003_day_24_data.csv,1,600,,Button-Switch at home,,,,,,,,,,,,,d
3,24,1071,B,52.54071613268618,41.30093148783486,2.627035806634309,0.6487535147429868,B,1551.1448750039565,Correct,sub_003_day_24_data.csv,1,600,,Button-Switch at home,,,,,,,,,,,,,d
3,24,1072,A,45.8843909924005,68.54832772434546,2.2942195496200246,1.0767546139733462,A,547.6183340069838,Correct,sub_003_day_24_data.csv,1,600,,Button-Switch at home,,,,,,,,,,,,,k
3,24,1073,B,31.609909267248973,16.921393251253964,1.5804954633624488,0.2658006236332167,B,565.0554590392858,Correct,sub_003_day_24_data.csv,1,600,,Button-Switch at home,,,,,,,,,,,,,d
3,24,1074,B,70.27175925827763,41.7381489470072,3.513587962913881,0.655621310531772,B,584.1176669928245,Correct,sub_003_day_24_data.csv,1,600,,Button-Switch at home,,,,,,,,,,,,,d
3,24,1075,A,20.565136199047625,51.04107249818635,1.0282568099523812,0.8017512919582312,A,497.47066700365394,Correct,sub_003_day_24_data.csv,1,600,,Button-Switch at home,,,,,,,,,,,,,k
3,24,1076,A,57.164090448185696,72.27608437279692,2.858204522409285,1.1353100784790744,A,912.1047919616104,Correct,sub_003_day_24_data.csv,1,600,,Button-Switch at home,,,,,,,,,,,,,k
3,24,1077,B,38.81732124747218,16.975135116191822,1.9408660623736091,0.2666447988736117,B,1582.734249997884,Correct,sub_003_day_24_data.csv,1,600,,Button-Switch at home,,,,,,,,,,,,,d
3,24,1078,B,48.22467846608737,29.265759741588845,2.4112339233043683,0.4597054790294971,B,1796.0186249692924,Correct,sub_003_day_24_data.csv,1,600,,Button-Switch at home,,,,,,,,,,,,,d
3,24,1079,B,49.36215086615735,18.53493124317315,2.4681075433078674,0.2911460191417235,B,549.4299580459483,Correct,sub_003_day_24_data.csv,1,600,,Button-Switch at home,,,,,,,,,,,,,d
3,24,1080,B,48.11832483775808,39.92762285324724,2.405916241887904,0.6271816331553274,B,521.4815000072122,Correct,sub_003_day_24_data.csv,1,600,,Button-Switch at home,,,,,,,,,,,,,d
3,24,1081,A,29.025954169852643,40.230260381452354,1.4512977084926322,0.6319354523318762,A,807.9687079880387,Correct,sub_003_day_24_data.csv,1,600,,Button-Switch at home,,,,,,,,,,,,,k
3,24,1082,B,37.57569135573681,25.64380674001144,1.8787845677868404,0.4028119743224818,B,690.0781249860302,Correct,sub_003_day_24_data.csv,1,600,,Button-Switch at home,,,,,,,,,,,,,d
3,24,1083,A,20.740052379669596,33.43693358949241,1.0370026189834798,0.5252261246165958,A,1183.4823749959469,Correct,sub_003_day_24_data.csv,1,600,,Button-Switch at home,,,,,,,,,,,,,k
3,24,1084,B,79.3815512220749,67.32792911094532,3.969077561103745,1.0575846373818008,B,4580.936499987729,Correct,sub_003_day_24_data.csv,1,600,,Button-Switch at home,,,,,,,,,,,,,d
3,24,1085,A,42.12713407413313,74.71254821595919,2.1063567037066564,1.173581963031153,A,498.4614999848418,Correct,sub_003_day_24_data.csv,1,600,,Button-Switch at home,,,,,,,,,,,,,k
3,24,1086,A,53.676726120974735,61.90652988324758,2.683836306048737,0.972425497452238,B,637.5586250214837,Incorrect,sub_003_day_24_data.csv,0,600,,Button-Switch at home,,,,,,,,,,,,,d
3,24,1087,B,73.04522686324827,40.85442174880363,3.652261343162414,0.6417397561635028,B,568.2089159963652,Correct,sub_003_day_24_data.csv,1,600,,Button-Switch at home,,,,,,,,,,,,,d
3,24,1088,B,39.763303697526425,28.62483980884401,1.988165184876321,0.449637932268245,B,510.60187502298504,Correct,sub_003_day_24_data.csv,1,600,,Button-Switch at home,,,,,,,,,,,,,d
3,24,1089,B,55.42405724016108,39.8313234201926,2.7712028620080544,0.6256689651981806,B,446.4035829878412,Correct,sub_003_day_24_data.csv,1,600,,Button-Switch at home,,,,,,,,,,,,,d
3,24,1090,B,61.48818509238848,37.85763685567949,3.0744092546194235,0.5946663691403644,B,520.1732089626603,Correct,sub_003_day_24_data.csv,1,600,,Button-Switch at home,,,,,,,,,,,,,d
3,24,1091,B,60.32632466183743,31.529265842774105,3.0163162330918714,0.4952605497236936,B,421.44233401631936,Correct,sub_003_day_24_data.csv,1,600,,Button-Switch at home,,,,,,,,,,,,,d
3,24,1092,B,41.148406120843,20.21148210218772,2.05742030604215,0.3174812184519726,B,491.6083750431426,Correct,sub_003_day_24_data.csv,1,600,,Button-Switch at home,,,,,,,,,,,,,d
3,24,1093,B,78.85311067885144,52.84929328462748,3.942655533942572,0.8301547576519904,B,500.271208002232,Correct,sub_003_day_24_data.csv,1,600,,Button-Switch at home,,,,,,,,,,,,,d
3,24,1094,A,51.74635146132272,78.52219351664338,2.587317573066136,1.2334237314782148,A,658.5465830285102,Correct,sub_003_day_24_data.csv,1,600,,Button-Switch at home,,,,,,,,,,,,,k
3,24,1095,B,46.76275401285366,32.29272238530328,2.338137700642683,0.5072528970504172,B,829.6527080237865,Correct,sub_003_day_24_data.csv,1,600,,Button-Switch at home,,,,,,,,,,,,,d
3,24,1096,A,12.976156898886565,38.08163552924212,0.6488078449443282,0.5981849320767555,A,865.1922080316581,Correct,sub_003_day_24_data.csv,1,600,,Button-Switch at home,,,,,,,,,,,,,k
3,24,1097,A,43.88246344288658,59.37924722890065,2.194123172144329,0.9327270343500318,A,1107.983041962143,Correct,sub_003_day_24_data.csv,1,600,,Button-Switch at home,,,,,,,,,,,,,k
3,24,1098,B,56.7132036699121,26.829901499682588,2.835660183495605,0.4214431072397029,B,923.8599590025842,Correct,sub_003_day_24_data.csv,1,600,,Button-Switch at home,,,,,,,,,,,,,d
3,24,1099,A,42.258949095973634,71.61343267894684,2.1129474547986815,1.124901170012633,A,600.2287910087034,Correct,sub_003_day_24_data.csv,1,600,,Button-Switch at home,,,,,,,,,,,,,k
3,24,1100,A,34.6484593787645,65.93076743561979,1.732422968938225,1.0356380731064014,A,958.9846250019036,Correct,sub_003_day_24_data.csv,1,600,,Button-Switch at home,,,,,,,,,,,,,k
3,24,1101,B,44.79905080316734,30.21702443537232,2.239952540158367,0.4746479098975447,B,1086.4529160317034,Correct,sub_003_day_24_data.csv,1,600,,Button-Switch at home,,,,,,,,,,,,,d
3,24,1102,A,51.52666624794398,76.81633000685207,2.5763333123971988,1.206628090126278,A,526.2927500298247,Correct,sub_003_day_24_data.csv,1,600,,Button-Switch at home,,,,,,,,,,,,,k
3,24,1103,B,45.10935527040978,32.56924862004452,2.255467763520489,0.5115965609883568,B,1425.2474589738997,Correct,sub_003_day_24_data.csv,1,600,,Button-Switch at home,,,,,,,,,,,,,d
3,24,1104,A,30.485909554537017,49.830242487907995,1.524295477726851,0.7827316186330486,A,976.9137090188452,Correct,sub_003_day_24_data.csv,1,600,,Button-Switch at home,,,,,,,,,,,,,k
3,24,1105,A,37.497092173156275,53.504159501630205,1.8748546086578135,0.84044137213409,A,876.6881659976207,Correct,sub_003_day_24_data.csv,1,600,,Button-Switch at home,,,,,,,,,,,,,k
3,24,1106,B,35.28200494530613,15.901143506275291,1.7641002472653065,0.2497745781149575,B,1390.4497500043362,Correct,sub_003_day_24_data.csv,1,600,,Button-Switch at home,,,,,,,,,,,,,d
3,24,1107,B,79.18394482790792,48.08868227909336,3.959197241395396,0.755375254844067,B,1533.1419999711215,Correct,sub_003_day_24_data.csv,1,600,,Button-Switch at home,,,,,,,,,,,,,d
3,24,1108,B,42.53109611983557,21.859961557156037,2.1265548059917787,0.3433754731785835,B,612.8228330053389,Correct,sub_003_day_24_data.csv,1,600,,Button-Switch at home,,,,,,,,,,,,,d
3,24,1109,A,67.80616426891535,88.52884123240477,3.390308213445768,1.3906077862326998,A,1704.2842080118137,Correct,sub_003_day_24_data.csv,1,600,,Button-Switch at home,,,,,,,,,,,,,k
3,24,1110,B,58.7043064099806,38.05994098839032,2.9352153204990303,0.5978441550259403,B,934.9004589603284,Correct,sub_003_day_24_data.csv,1,600,,Button-Switch at home,,,,,,,,,,,,,d
3,24,1111,B,66.4077210819787,38.80789335330214,3.320386054098935,0.6095929633001508,B,853.1588750192896,Correct,sub_003_day_24_data.csv,1,600,,Button-Switch at home,,,,,,,,,,,,,d
3,24,1112,A,37.58224707900446,61.31385535182392,1.8791123539502228,0.9631157876827862,A,1340.3474999940954,Correct,sub_003_day_24_data.csv,1,600,,Button-Switch at home,,,,,,,,,,,,,k
3,24,1113,B,42.01528396029056,19.29516586479304,2.100764198014528,0.3030877566531519,B,1803.036208031699,Correct,sub_003_day_24_data.csv,1,600,,Button-Switch at home,,,,,,,,,,,,,d
3,24,1114,A,36.56038043883857,51.71313693643356,1.8280190219419288,0.8123080554679132,A,762.666166992858,Correct,sub_003_day_24_data.csv,1,600,,Button-Switch at home,,,,,,,,,,,,,k
3,24,1115,A,33.040140254151154,49.82505291492647,1.6520070127075577,0.7826501010112785,A,741.3729580002837,Correct,sub_003_day_24_data.csv,1,600,,Button-Switch at home,,,,,,,,,,,,,k
3,24,1116,B,76.84506997387281,54.04566003438007,3.842253498693641,0.8489472426120998,B,652.008333010599,Correct,sub_003_day_24_data.csv,1,600,,Button-Switch at home,,,,,,,,,,,,,d
3,24,1117,A,36.809933240921346,54.42781110699667,1.8404966620460672,0.8549500576235686,A,626.218791003339,Correct,sub_003_day_24_data.csv,1,600,,Button-Switch at home,,,,,,,,,,,,,k
3,24,1118,B,58.47796741683194,44.69865794329769,2.923898370841597,0.7021248770999354,B,1001.500250014942,Correct,sub_003_day_24_data.csv,1,600,,Button-Switch at home,,,,,,,,,,,,,d
3,24,1119,B,54.195248199252326,46.95585023799927,2.7097624099626163,0.7375807707538052,B,824.5232499903068,Correct,sub_003_day_24_data.csv,1,600,,Button-Switch at home,,,,,,,,,,,,,d
3,24,1120,A,64.7524007683403,85.30075737324,3.237620038417014,1.3399011635470808,A,619.3470419966616,Correct,sub_003_day_24_data.csv,1,600,,Button-Switch at home,,,,,,,,,,,,,k
3,24,1121,B,84.43911460973732,69.22335123769501,4.221955730486866,1.0873578585260428,B,974.594208993949,Correct,sub_003_day_24_data.csv,1,600,,Button-Switch at home,,,,,,,,,,,,,d
3,24,1122,B,68.04354232125104,36.837508760950094,3.402177116062552,0.5786422344997523,B,949.4337500073016,Correct,sub_003_day_24_data.csv,1,600,,Button-Switch at home,,,,,,,,,,,,,d
3,24,1123,B,66.69144578456206,38.568441908625985,3.3345722892281033,0.6058316688027205,B,636.2040829844773,Correct,sub_003_day_24_data.csv,1,600,,Button-Switch at home,,,,,,,,,,,,,d
3,24,1124,B,69.70520629091521,58.75715266277571,3.485260314545761,0.9229551957561508,B,1088.0320830037815,Correct,sub_003_day_24_data.csv,1,600,,Button-Switch at home,,,,,,,,,,,,,d
3,24,1125,B,55.13542879705863,45.25229609058622,2.7567714398529315,0.710821404781279,B,755.0003749784082,Correct,sub_003_day_24_data.csv,1,600,,Button-Switch at home,,,,,,,,,,,,,d
3,24,1126,B,55.43604047561276,44.66008035951528,2.7718020237806376,0.701518901830915,B,1144.342916959431,Correct,sub_003_day_24_data.csv,1,600,,Button-Switch at home,,,,,,,,,,,,,d
3,24,1127,B,59.70413529086908,33.624052906825256,2.985206764543454,0.5281653879799838,B,445.5321249552071,Correct,sub_003_day_24_data.csv,1,600,,Button-Switch at home,,,,,,,,,,,,,d
3,24,1128,A,29.23224503511765,49.64672001174867,1.4616122517558825,0.7798488543186949,A,524.7862079995684,Correct,sub_003_day_24_data.csv,1,600,,Button-Switch at home,,,,,,,,,,,,,k
3,24,1129,B,42.41823300051003,21.578118321558,2.1209116500255014,0.3389482899864897,B,456.73162501771,Correct,sub_003_day_24_data.csv,1,600,,Button-Switch at home,,,,,,,,,,,,,d
3,24,1130,B,59.9091435467694,27.92317424283564,2.99545717733847,0.4386161953310009,B,765.5335830058903,Correct,sub_003_day_24_data.csv,1,600,,Button-Switch at home,,,,,,,,,,,,,d
3,24,1131,A,26.50260087882613,51.781797191648344,1.3251300439413063,0.8133865682347952,A,533.3290410344489,Correct,sub_003_day_24_data.csv,1,600,,Button-Switch at home,,,,,,,,,,,,,k
3,24,1132,A,61.77130925745037,75.79440125604157,3.088565462872518,1.190575670846086,A,1861.844458966516,Correct,sub_003_day_24_data.csv,1,600,,Button-Switch at home,,,,,,,,,,,,,k
3,24,1133,B,81.10216007091219,55.268973619372886,4.05510800354561,0.8681630074703498,B,1085.8687920263037,Correct,sub_003_day_24_data.csv,1,600,,Button-Switch at home,,,,,,,,,,,,,d
3,24,1134,B,69.1696176526099,48.42785929440599,3.4584808826304947,0.7607030349419301,B,598.5493750195019,Correct,sub_003_day_24_data.csv,1,600,,Button-Switch at home,,,,,,,,,,,,,d
3,24,1135,B,66.72588674035669,37.24334377125695,3.3362943370178346,0.5850170759345001,B,875.7563750259578,Correct,sub_003_day_24_data.csv,1,600,,Button-Switch at home,,,,,,,,,,,,,d
3,24,1136,A,26.40422784178552,49.65685789772613,1.320211392089276,0.7800080998592437,A,1601.2313749524765,Correct,sub_003_day_24_data.csv,1,600,,Button-Switch at home,,,,,,,,,,,,,k
3,24,1137,B,80.97377766672322,58.27137928458254,4.048688883336161,0.9153246853749448,B,901.5012500458396,Correct,sub_003_day_24_data.csv,1,600,,Button-Switch at home,,,,,,,,,,,,,d
3,24,1138,B,70.9865665626474,47.03225824663274,3.5493283281323698,0.7387809849467969,B,466.07558301184326,Correct,sub_003_day_24_data.csv,1,600,,Button-Switch at home,,,,,,,,,,,,,d
3,24,1139,B,41.39658617156357,24.117617699720267,2.0698293085781785,0.3788386529376417,B,1205.5379170342349,Correct,sub_003_day_24_data.csv,1,600,,Button-Switch at home,,,,,,,,,,,,,d
3,24,1140,A,45.03878139450219,60.44154721351504,2.25193906972511,0.9494136034878974,A,626.9217500230297,Correct,sub_003_day_24_data.csv,1,600,,Button-Switch at home,,,,,,,,,,,,,k
3,24,1141,A,34.121838254492545,59.46699286649287,1.7060919127246277,0.9341053396022532,A,958.1665829755366,Correct,sub_003_day_24_data.csv,1,600,,Button-Switch at home,,,,,,,,,,,,,k
3,24,1142,A,39.37882145965629,69.97268952224604,1.9689410729828145,1.0991284367750382,A,1019.4882079958916,Correct,sub_003_day_24_data.csv,1,600,,Button-Switch at home,,,,,,,,,,,,,k
3,24,1143,B,55.35121716542045,22.979503813267826,2.767560858271022,0.3609612018145041,B,525.3324579680339,Correct,sub_003_day_24_data.csv,1,600,,Button-Switch at home,,,,,,,,,,,,,d
3,24,1144,A,41.78637066211924,58.22470136830446,2.0893185331059616,0.9145914703806244,A,985.0067499792204,Correct,sub_003_day_24_data.csv,1,600,,Button-Switch at home,,,,,,,,,,,,,k
3,24,1145,B,46.92489444730455,19.13177545815466,2.3462447223652276,0.3005212261473409,B,713.0152919562533,Correct,sub_003_day_24_data.csv,1,600,,Button-Switch at home,,,,,,,,,,,,,d
3,24,1146,A,28.40758550045951,47.11124389080667,1.4203792750229756,0.7400216885441765,A,964.0971250482836,Correct,sub_003_day_24_data.csv,1,600,,Button-Switch at home,,,,,,,,,,,,,k
3,24,1147,A,46.419398749012245,66.2398863200774,2.3209699374506125,1.040493701188891,A,1443.7013330170885,Correct,sub_003_day_24_data.csv,1,600,,Button-Switch at home,,,,,,,,,,,,,k
3,24,1148,B,61.19914559927278,45.75028153945467,3.059957279963639,0.7186437419200776,B,605.9177499846555,Correct,sub_003_day_24_data.csv,1,600,,Button-Switch at home,,,,,,,,,,,,,d
3,24,1149,B,70.91445768718575,56.67397332713172,3.545722884359287,0.8902326912713044,B,816.4070839993656,Correct,sub_003_day_24_data.csv,1,600,,Button-Switch at home,,,,,,,,,,,,,d
3,24,1150,A,41.50078494189294,57.47474871929278,2.075039247094647,0.902811241717248,A,1040.6297500012442,Correct,sub_003_day_24_data.csv,1,600,,Button-Switch at home,,,,,,,,,,,,,k
3,24,1151,A,33.281365943099395,48.423013163506766,1.6640682971549696,0.7606269120957735,A,1082.173499977216,Correct,sub_003_day_24_data.csv,1,600,,Button-Switch at home,,,,,,,,,,,,,k
3,24,1152,A,25.440110636661593,42.428171085639406,1.2720055318330796,0.6664601529394781,B,459.5962910098024,Incorrect,sub_003_day_24_data.csv,0,600,,Button-Switch at home,,,,,,,,,,,,,d
3,24,1153,B,57.19882683967384,27.42393328276186,2.8599413419836925,0.4307741366683064,B,473.8331249682233,Correct,sub_003_day_24_data.csv,1,600,,Button-Switch at home,,,,,,,,,,,,,d
