subject,day,trial,cat,x,y,xt,yt,resp,rt,fb,f_name,acc,n_trials,block,session_type,ns_left_digit,ns_right_digit,ns_left_size,ns_right_size,ns_congruent,ns_cue,ns_correct_side,ns_resp,ns_rt,ns_fb,acc_stroop,acc_stroop_mean,resp_key
3,15,3300,B,37.64880428540855,22.213056250676853,1.8824402142704275,0.3489218716545161,A,1321.796999021899,Incorrect,sub_003_day_15_data.csv,0,300,132.0,Training at home,,,,,,,,,,,,,
3,15,3301,A,53.59623760803124,79.7442386438288,2.6798118804015623,1.252619571447819,A,566.1157079739496,Correct,sub_003_day_15_data.csv,1,300,132.0,Training at home,,,,,,,,,,,,,
3,15,3302,B,57.85784486694171,46.65823381308495,2.8928922433470854,0.7329058228833127,B,1791.11124901101,Correct,sub_003_day_15_data.csv,1,300,132.0,Training at home,,,,,,,,,,,,,
3,15,3303,A,65.37568324018102,85.03321615881768,3.268784162009051,1.3356986359782723,A,546.6359579586424,Correct,sub_003_day_15_data.csv,1,300,132.0,Training at home,,,,,,,,,,,,,
3,15,3304,B,75.34407805040273,51.28035064785985,3.7672039025201367,0.8055098643441253,B,479.5180819928646,Correct,sub_003_day_15_data.csv,1,300,132.0,Training at home,,,,,,,,,,,,,
3,15,3305,A,41.86194353838272,70.11809199308922,2.093097176919136,1.1014124134461118,A,554.1859160293825,Correct,sub_003_day_15_data.csv,1,300,132.0,Training at home,,,,,,,,,,,,,
3,15,3306,A,41.103804823722285,55.16458636235369,2.0551902411861143,0.8665232962714501,A,1562.1764159877785,Correct,sub_003_day_15_data.csv,1,300,132.0,Training at home,,,,,,,,,,,,,
3,15,3307,B,51.57245093175049,33.1809166809366,2.5786225465875243,0.5212046204210271,B,726.6354159801267,Correct,sub_003_day_15_data.csv,1,300,132.0,Training at home,,,,,,,,,,,,,
3,15,3308,A,18.429890599115105,32.49336243436292,0.9214945299557552,0.5104045435711255,A,496.1627909797244,Correct,sub_003_day_15_data.csv,1,300,132.0,Training at home,,,,,,,,,,,,,
3,15,3309,B,76.85450883055921,50.62018001621321,3.8427254415279606,0.7951399283116413,B,435.5881660012528,Correct,sub_003_day_15_data.csv,1,300,132.0,Training at home,,,,,,,,,,,,,
3,15,3310,B,56.66398851836196,47.31225664580466,2.833199425918098,0.743179189516074,B,647.102040995378,Correct,sub_003_day_15_data.csv,1,300,132.0,Training at home,,,,,,,,,,,,,
3,15,3311,A,45.215746726976846,58.08508566346912,2.260787336348842,0.912398392017442,A,637.3733739601448,Correct,sub_003_day_15_data.csv,1,300,132.0,Training at home,,,,,,,,,,,,,
3,15,3312,A,30.105884266268923,50.54951264621848,1.505294213313446,0.7940298878595217,A,500.7486660033464,Correct,sub_003_day_15_data.csv,1,300,132.0,Training at home,,,,,,,,,,,,,
3,15,3313,A,21.1798820932267,37.72294743849144,1.058994104661335,0.5925506727225931,A,633.8969159987755,Correct,sub_003_day_15_data.csv,1,300,132.0,Training at home,,,,,,,,,,,,,
3,15,3314,A,24.480795311143893,43.96206777147541,1.2240397655571946,0.6905545457374187,A,722.1026659826748,Correct,sub_003_day_15_data.csv,1,300,132.0,Training at home,,,,,,,,,,,,,
3,15,3315,A,17.839029861512902,43.74557147931514,0.891951493075645,0.6871538299325182,A,416.0689570126124,Correct,sub_003_day_15_data.csv,1,300,132.0,Training at home,,,,,,,,,,,,,
3,15,3316,A,23.410289345960628,37.00454078060943,1.1705144672980312,0.5812659673291325,A,594.7862069588155,Correct,sub_003_day_15_data.csv,1,300,132.0,Training at home,,,,,,,,,,,,,
3,15,3317,A,56.70839871214839,82.31869512047284,2.8354199356074195,1.2930590392178771,A,560.4584579705261,Correct,sub_003_day_15_data.csv,1,300,132.0,Training at home,,,,,,,,,,,,,
3,15,3318,A,16.81513829784911,42.09853412087807,0.8407569148924554,0.6612822276052489,A,502.2295819944702,Correct,sub_003_day_15_data.csv,1,300,132.0,Training at home,,,,,,,,,,,,,
3,15,3319,B,57.37566375563486,47.0189179026966,2.8687831877817427,0.7385714353142662,B,528.574166004546,Correct,sub_003_day_15_data.csv,1,300,132.0,Training at home,,,,,,,,,,,,,
3,15,3320,A,47.16700469242393,58.18631845798246,2.3583502346211964,0.9139885530351696,A,640.4305819887668,Correct,sub_003_day_15_data.csv,1,300,132.0,Training at home,,,,,,,,,,,,,
3,15,3321,B,65.32179269389755,37.51707111910301,3.2660896346948776,0.5893167750598991,B,429.7226659837179,Correct,sub_003_day_15_data.csv,1,300,132.0,Training at home,,,,,,,,,,,,,
3,15,3322,A,59.95055159770757,76.68453159388821,2.997527579885378,1.204557805496668,A,488.0936660338193,Correct,sub_003_day_15_data.csv,1,300,132.0,Training at home,,,,,,,,,,,,,
3,15,3323,B,85.5492771003357,58.824275394075286,4.277463855016785,0.9240095571538488,B,445.1422070269473,Correct,sub_003_day_15_data.csv,1,300,132.0,Training at home,,,,,,,,,,,,,
3,15,3324,B,32.198693093779085,10.8813582386826,1.609934654688954,0.1709239755186201,B,1018.2994159986264,Correct,sub_003_day_15_data.csv,1,300,132.0,Training at home,,,,,,,,,,,,,
3,15,3325,A,50.58105939135025,58.36100345305129,2.529052969567513,0.9167324985211722,A,2552.682208013721,Correct,sub_003_day_15_data.csv,1,300,133.0,Training at home,,,,,,,,,,,,,
3,15,3326,A,40.57366620313912,56.4402475286651,2.0286833101569557,0.8865613350142189,A,1303.873207012657,Correct,sub_003_day_15_data.csv,1,300,133.0,Training at home,,,,,,,,,,,,,
3,15,3327,A,49.94803948991016,75.12150563326841,2.4974019744955083,1.1800058511204017,A,542.5212910049595,Correct,sub_003_day_15_data.csv,1,300,133.0,Training at home,,,,,,,,,,,,,
3,15,3328,B,34.54179771215678,16.142120090887037,1.727089885607839,0.2535598294544746,B,617.6009989576414,Correct,sub_003_day_15_data.csv,1,300,133.0,Training at home,,,,,,,,,,,,,
3,15,3329,B,62.12562207991126,48.11664453537745,3.106281103995563,0.7558144849386664,B,2639.933957019821,Correct,sub_003_day_15_data.csv,1,300,133.0,Training at home,,,,,,,,,,,,,
3,15,3330,B,61.44062950239245,30.15428777390621,3.0720314751196223,0.4736624447236813,B,407.7218319871463,Correct,sub_003_day_15_data.csv,1,300,133.0,Training at home,,,,,,,,,,,,,
3,15,3331,A,34.57509436228405,59.81119262088776,1.7287547181142024,0.9395120167011252,A,630.6092489976436,Correct,sub_003_day_15_data.csv,1,300,133.0,Training at home,,,,,,,,,,,,,
3,15,3332,A,26.274688414697877,45.410688390451966,1.313734420734894,0.713309425209496,A,549.0541240433231,Correct,sub_003_day_15_data.csv,1,300,133.0,Training at home,,,,,,,,,,,,,
3,15,3333,A,40.76693721954486,49.52304162352785,2.0383468609772426,0.7779061187394832,A,617.9407910094596,Correct,sub_003_day_15_data.csv,1,300,133.0,Training at home,,,,,,,,,,,,,
3,15,3334,A,19.81339991991905,43.71237309547038,0.9906699959959524,0.6866323509385294,A,629.003832989838,Correct,sub_003_day_15_data.csv,1,300,133.0,Training at home,,,,,,,,,,,,,
3,15,3335,A,62.84246247111737,79.50286589574816,3.1421231235558684,1.2488280971870844,A,680.4070829530247,Correct,sub_003_day_15_data.csv,1,300,133.0,Training at home,,,,,,,,,,,,,
3,15,3336,A,57.48823089345434,65.49944342502285,2.874411544672717,1.0288628513913602,A,571.9788739806972,Correct,sub_003_day_15_data.csv,1,300,133.0,Training at home,,,,,,,,,,,,,
3,15,3337,A,26.02572293523654,44.97891848590309,1.301286146761827,0.7065271994086365,A,883.081583015155,Correct,sub_003_day_15_data.csv,1,300,133.0,Training at home,,,,,,,,,,,,,
3,15,3338,A,26.10281577428445,49.72170378386225,1.3051407887142228,0.7810266966567474,A,1094.3204989889637,Correct,sub_003_day_15_data.csv,1,300,133.0,Training at home,,,,,,,,,,,,,
3,15,3339,A,63.23531096923746,78.75280314596537,3.1617655484618727,1.2370461390648395,A,597.4930410156958,Correct,sub_003_day_15_data.csv,1,300,133.0,Training at home,,,,,,,,,,,,,
3,15,3340,B,87.76099157432921,60.74640012643552,4.38804957871646,0.9542022218461796,B,611.4844990079291,Correct,sub_003_day_15_data.csv,1,300,133.0,Training at home,,,,,,,,,,,,,
3,15,3341,A,42.01153603886732,52.95595722014231,2.100576801943366,0.8318302308330721,A,629.6540829935111,Correct,sub_003_day_15_data.csv,1,300,133.0,Training at home,,,,,,,,,,,,,
3,15,3342,A,45.61858279543251,55.616770899502306,2.280929139771626,0.8736261943713151,A,1277.058958017733,Correct,sub_003_day_15_data.csv,1,300,133.0,Training at home,,,,,,,,,,,,,
3,15,3343,A,53.459287272742166,73.73221759249626,2.6729643636371083,1.1581829656073517,A,560.4493329883553,Correct,sub_003_day_15_data.csv,1,300,133.0,Training at home,,,,,,,,,,,,,
3,15,3344,B,58.081474136059754,34.822277361824135,2.9040737068029876,0.5469870537058643,B,538.121375022456,Correct,sub_003_day_15_data.csv,1,300,133.0,Training at home,,,,,,,,,,,,,
3,15,3345,A,51.773930587072115,64.9466627336077,2.588696529353606,1.0201797925953795,A,848.6741250380874,Correct,sub_003_day_15_data.csv,1,300,133.0,Training at home,,,,,,,,,,,,,
3,15,3346,A,36.52887289617898,60.31448750448137,1.8264436448089492,0.9474177542455602,A,613.3543739560992,Correct,sub_003_day_15_data.csv,1,300,133.0,Training at home,,,,,,,,,,,,,
3,15,3347,A,30.966721674839704,49.04268199648435,1.5483360837419853,0.7703606473624782,A,579.3489569914527,Correct,sub_003_day_15_data.csv,1,300,133.0,Training at home,,,,,,,,,,,,,
3,15,3348,A,66.77530344139976,78.67384413512117,3.3387651720699876,1.2358058538228256,A,523.8883330021054,Correct,sub_003_day_15_data.csv,1,300,133.0,Training at home,,,,,,,,,,,,,
3,15,3349,B,72.9080134669295,51.74933911430136,3.645400673346475,0.8128767179480807,B,504.7297909623012,Correct,sub_003_day_15_data.csv,1,300,133.0,Training at home,,,,,,,,,,,,,
3,15,3350,B,37.76698327259578,23.48504542358684,1.888349163629789,0.368902230859815,B,1210.844665998593,Correct,sub_003_day_15_data.csv,1,300,134.0,Training at home,,,,,,,,,,,,,
3,15,3351,B,82.61447334950844,57.24557457153829,4.130723667475422,0.8992113826223567,B,536.7348330328241,Correct,sub_003_day_15_data.csv,1,300,134.0,Training at home,,,,,,,,,,,,,
3,15,3352,A,29.647360093395456,44.61036306922094,1.482368004669773,0.7007379444611895,A,850.4605829948559,Correct,sub_003_day_15_data.csv,1,300,134.0,Training at home,,,,,,,,,,,,,
3,15,3353,A,28.7813477459848,48.337620909098014,1.43906738729924,0.7592855737001533,A,513.1400829995982,Correct,sub_003_day_15_data.csv,1,300,134.0,Training at home,,,,,,,,,,,,,
3,15,3354,B,87.56795801148712,65.67910775650414,4.378397900574356,1.0316850121108287,B,530.1242499845102,Correct,sub_003_day_15_data.csv,1,300,134.0,Training at home,,,,,,,,,,,,,
3,15,3355,B,42.34717927587611,17.840426271491342,2.1173589637938055,0.2802367605571377,B,507.4692909838632,Correct,sub_003_day_15_data.csv,1,300,134.0,Training at home,,,,,,,,,,,,,
3,15,3356,B,46.62318260975208,38.75320653333324,2.331159130487604,0.6087339447408384,B,580.354874022305,Correct,sub_003_day_15_data.csv,1,300,134.0,Training at home,,,,,,,,,,,,,
3,15,3357,B,51.20211259413108,19.73301705974345,2.560105629706554,0.3099655071402604,B,743.5902080032974,Correct,sub_003_day_15_data.csv,1,300,134.0,Training at home,,,,,,,,,,,,,
3,15,3358,B,79.63884618372668,48.41004875209944,3.9819423091863344,0.7604232675975968,B,781.9926659576595,Correct,sub_003_day_15_data.csv,1,300,134.0,Training at home,,,,,,,,,,,,,
3,15,3359,B,68.52632141253464,40.798242434219006,3.426316070626732,0.640857293553589,B,658.5412910208106,Correct,sub_003_day_15_data.csv,1,300,134.0,Training at home,,,,,,,,,,,,,
3,15,3360,B,40.89623051807139,22.238303673142227,2.0448115259035693,0.3493184572392126,A,1670.1777080306783,Incorrect,sub_003_day_15_data.csv,0,300,134.0,Training at home,,,,,,,,,,,,,
3,15,3361,A,25.81338448809035,39.16938562419608,1.2906692244045177,0.6152712706130002,A,707.9925819998607,Correct,sub_003_day_15_data.csv,1,300,134.0,Training at home,,,,,,,,,,,,,
3,15,3362,B,66.15352803820787,41.44254539399479,3.3076764019103932,0.6509779807791777,B,952.1662490442396,Correct,sub_003_day_15_data.csv,1,300,134.0,Training at home,,,,,,,,,,,,,
3,15,3363,A,52.71717601904,63.226112888075896,2.635858800952,0.9931534588210909,A,730.4409580538049,Correct,sub_003_day_15_data.csv,1,300,134.0,Training at home,,,,,,,,,,,,,
3,15,3364,A,36.93784504261594,52.27111447392274,1.846892252130797,0.8210727461311338,A,730.0779990036972,Correct,sub_003_day_15_data.csv,1,300,134.0,Training at home,,,,,,,,,,,,,
3,15,3365,A,29.028968774031533,44.48376681884943,1.4514484387015767,0.6987493752104939,A,576.618375023827,Correct,sub_003_day_15_data.csv,1,300,134.0,Training at home,,,,,,,,,,,,,
3,15,3366,B,58.10804637778923,49.65430712391206,2.9054023188894615,0.7799680323978674,B,1739.5071659702808,Correct,sub_003_day_15_data.csv,1,300,134.0,Training at home,,,,,,,,,,,,,
3,15,3367,A,21.196189903589996,49.2244617683601,1.0598094951794998,0.7732160373419585,A,814.5897489739582,Correct,sub_003_day_15_data.csv,1,300,134.0,Training at home,,,,,,,,,,,,,
3,15,3368,B,59.68394669098041,37.42178172655677,2.984197334549021,0.5878199727819576,B,792.1785830403678,Correct,sub_003_day_15_data.csv,1,300,134.0,Training at home,,,,,,,,,,,,,
3,15,3369,A,48.40707360171524,62.35533833538589,2.420353680085762,0.9794753641327716,A,941.0699579748324,Correct,sub_003_day_15_data.csv,1,300,134.0,Training at home,,,,,,,,,,,,,
3,15,3370,A,18.972069802044036,41.70095721901037,0.9486034901022018,0.655037104234526,A,650.3807490225881,Correct,sub_003_day_15_data.csv,1,300,134.0,Training at home,,,,,,,,,,,,,
3,15,3371,B,51.80574468156321,26.328605965577403,2.590287234078161,0.4135687754035919,B,701.0623749811202,Correct,sub_003_day_15_data.csv,1,300,134.0,Training at home,,,,,,,,,,,,,
3,15,3372,A,55.73941274368964,74.1370711516913,2.786970637184482,1.164542390444086,A,534.7879990004003,Correct,sub_003_day_15_data.csv,1,300,134.0,Training at home,,,,,,,,,,,,,
3,15,3373,A,34.10807481640441,42.785217621533775,1.7054037408202205,0.6720686268102554,A,655.325373983942,Correct,sub_003_day_15_data.csv,1,300,134.0,Training at home,,,,,,,,,,,,,
3,15,3374,B,75.39434786393846,49.881193073920386,3.769717393196923,0.7835319485666119,B,502.6784989750013,Correct,sub_003_day_15_data.csv,1,300,134.0,Training at home,,,,,,,,,,,,,
3,15,3375,A,62.08514874039826,86.74218604403912,3.1042574370199127,1.3625430721613618,A,545.552373980172,Correct,sub_003_day_15_data.csv,1,300,135.0,Training at home,,,,,,,,,,,,,
3,15,3376,A,34.05061159598617,62.063590212645806,1.7025305797993084,0.9748925953372772,A,790.9158319816925,Correct,sub_003_day_15_data.csv,1,300,135.0,Training at home,,,,,,,,,,,,,
3,15,3377,B,49.5394634547856,31.28960664190002,2.47697317273928,0.4914959917995374,B,1200.47149900347,Correct,sub_003_day_15_data.csv,1,300,135.0,Training at home,,,,,,,,,,,,,
3,15,3378,B,45.45797275907431,37.92234139823124,2.2728986379537157,0.5956827457180368,B,1975.520540960133,Correct,sub_003_day_15_data.csv,1,300,135.0,Training at home,,,,,,,,,,,,,
3,15,3379,B,76.61640362227503,48.49514319356961,3.830820181113751,0.7617599279585169,B,1214.765458018519,Correct,sub_003_day_15_data.csv,1,300,135.0,Training at home,,,,,,,,,,,,,
3,15,3380,A,24.46979090878851,47.53680060971225,1.2234895454394257,0.7467063178531741,A,1033.747956971638,Correct,sub_003_day_15_data.csv,1,300,135.0,Training at home,,,,,,,,,,,,,
3,15,3381,A,55.79806694566975,79.68146907665118,2.789903347283488,1.251633589392248,A,631.8014989956282,Correct,sub_003_day_15_data.csv,1,300,135.0,Training at home,,,,,,,,,,,,,
3,15,3382,B,57.63485063601728,27.85258564618644,2.881742531800864,0.4375073922476992,B,769.1344160120934,Correct,sub_003_day_15_data.csv,1,300,135.0,Training at home,,,,,,,,,,,,,
3,15,3383,B,88.50397822413072,64.53566854478179,4.425198911206536,1.0137239109739618,B,656.0547489789315,Correct,sub_003_day_15_data.csv,1,300,135.0,Training at home,,,,,,,,,,,,,
3,15,3384,B,49.87788737400528,35.52854141578802,2.493894368700264,0.5580810235230017,B,705.107374000363,Correct,sub_003_day_15_data.csv,1,300,135.0,Training at home,,,,,,,,,,,,,
3,15,3385,B,68.8695936827982,54.9122428502192,3.44347968413991,0.8625594936519364,B,476.5248330077157,Correct,sub_003_day_15_data.csv,1,300,135.0,Training at home,,,,,,,,,,,,,
3,15,3386,A,63.446467271774054,77.44010912557428,3.1723233635887027,1.2164263896104803,A,662.938832945656,Correct,sub_003_day_15_data.csv,1,300,135.0,Training at home,,,,,,,,,,,,,
3,15,3387,A,50.29017058611859,73.65712358398937,2.5145085293059295,1.1570033916800826,A,627.8794159879908,Correct,sub_003_day_15_data.csv,1,300,135.0,Training at home,,,,,,,,,,,,,
3,15,3388,A,24.448997418460937,41.76809670884559,1.222449870923047,0.6560917288746866,A,871.2082909769379,Correct,sub_003_day_15_data.csv,1,300,135.0,Training at home,,,,,,,,,,,,,
3,15,3389,B,64.74175723042072,56.915139565508525,3.2370878615210357,0.8940209216851969,B,1455.5642909836024,Correct,sub_003_day_15_data.csv,1,300,135.0,Training at home,,,,,,,,,,,,,
3,15,3390,A,27.580501877888935,55.62825304303836,1.3790250938944468,0.8738065554602168,A,494.4987909984775,Correct,sub_003_day_15_data.csv,1,300,135.0,Training at home,,,,,,,,,,,,,
3,15,3391,B,46.133794106674785,35.746629693909064,2.306689705333739,0.5615067461848973,B,524.3850409751758,Correct,sub_003_day_15_data.csv,1,300,135.0,Training at home,,,,,,,,,,,,,
3,15,3392,B,50.333896837387414,25.526336826082144,2.516694841869371,0.4009667612293913,B,672.8545409860089,Correct,sub_003_day_15_data.csv,1,300,135.0,Training at home,,,,,,,,,,,,,
3,15,3393,B,72.2515150689332,46.55010940207204,3.61257575344666,0.7312074086067534,B,534.3184160301462,Correct,sub_003_day_15_data.csv,1,300,135.0,Training at home,,,,,,,,,,,,,
3,15,3394,A,45.22736164630757,60.60186168352848,2.261368082315378,0.9519318172941894,A,775.57399997022,Correct,sub_003_day_15_data.csv,1,300,135.0,Training at home,,,,,,,,,,,,,
3,15,3395,A,26.02446201476953,53.17973853182805,1.3012231007384765,0.8353453794570853,A,563.5023739887401,Correct,sub_003_day_15_data.csv,1,300,135.0,Training at home,,,,,,,,,,,,,
3,15,3396,A,55.17619475668329,79.57437346800144,2.7588097378341643,1.2499513355054193,A,513.0840829806402,Correct,sub_003_day_15_data.csv,1,300,135.0,Training at home,,,,,,,,,,,,,
3,15,3397,B,66.11576054284342,33.5965144708276,3.305788027142171,0.5277328152388758,B,544.0143750165589,Correct,sub_003_day_15_data.csv,1,300,135.0,Training at home,,,,,,,,,,,,,
3,15,3398,B,55.978959280558726,29.514410621093973,2.7989479640279367,0.4636112779113069,B,557.0618740166537,Correct,sub_003_day_15_data.csv,1,300,135.0,Training at home,,,,,,,,,,,,,
3,15,3399,B,65.5290477650598,57.70998197412362,3.2764523882529897,0.9065062770435308,B,732.1571659995243,Correct,sub_003_day_15_data.csv,1,300,135.0,Training at home,,,,,,,,,,,,,
3,15,3400,B,85.66342460882626,65.85995095954584,4.283171230441313,1.034525690501466,B,495.0085830059834,Correct,sub_003_day_15_data.csv,1,300,136.0,Training at home,,,,,,,,,,,,,
3,15,3401,A,38.84617462795073,65.59815307899292,1.942308731397537,1.0304133790101142,A,643.6016240040772,Correct,sub_003_day_15_data.csv,1,300,136.0,Training at home,,,,,,,,,,,,,
3,15,3402,B,69.33652676247868,58.75556985130139,3.4668263381239344,0.922930333011652,B,595.5184160266072,Correct,sub_003_day_15_data.csv,1,300,136.0,Training at home,,,,,,,,,,,,,
3,15,3403,B,70.77645420682154,47.964840351313114,3.538822710341077,0.7534299503914628,B,973.2319160248152,Correct,sub_003_day_15_data.csv,1,300,136.0,Training at home,,,,,,,,,,,,,
3,15,3404,B,47.4791192154579,16.995605778019225,2.373955960772895,0.2669663512776671,B,754.9659159849398,Correct,sub_003_day_15_data.csv,1,300,136.0,Training at home,,,,,,,,,,,,,
3,15,3405,A,36.052543497405274,60.84584645474077,1.802627174870264,0.9557643211183308,A,696.0301660001278,Correct,sub_003_day_15_data.csv,1,300,136.0,Training at home,,,,,,,,,,,,,
3,15,3406,A,67.16005869902483,83.2685188793101,3.3580029349512417,1.307978835932718,A,577.6746660121717,Correct,sub_003_day_15_data.csv,1,300,136.0,Training at home,,,,,,,,,,,,,
3,15,3407,A,10.338189309292527,33.875866993645545,0.5169094654646265,0.532120874406109,A,652.0129569689743,Correct,sub_003_day_15_data.csv,1,300,136.0,Training at home,,,,,,,,,,,,,
3,15,3408,B,68.33667329730923,36.534685297092125,3.416833664865462,0.5738854946527981,B,479.37799897044897,Correct,sub_003_day_15_data.csv,1,300,136.0,Training at home,,,,,,,,,,,,,
3,15,3409,B,85.1914556303318,60.855420572493955,4.2595727815165905,0.9559147110083208,B,484.4162910012528,Correct,sub_003_day_15_data.csv,1,300,136.0,Training at home,,,,,,,,,,,,,
3,15,3410,B,40.81376551516921,18.135536249911897,2.040688275758461,0.2848723372581729,B,566.6607079911046,Correct,sub_003_day_15_data.csv,1,300,136.0,Training at home,,,,,,,,,,,,,
3,15,3411,B,51.13042691899257,44.31120957967122,2.556521345949628,0.6960388524358638,B,1536.3690410158597,Correct,sub_003_day_15_data.csv,1,300,136.0,Training at home,,,,,,,,,,,,,
3,15,3412,B,51.550952856729786,24.936192904026974,2.577547642836489,0.3916968021789454,B,490.2237489586696,Correct,sub_003_day_15_data.csv,1,300,136.0,Training at home,,,,,,,,,,,,,
3,15,3413,B,70.78727515407803,59.58664538326809,3.5393637577039017,0.935984836940676,B,946.224082959816,Correct,sub_003_day_15_data.csv,1,300,136.0,Training at home,,,,,,,,,,,,,
3,15,3414,B,80.18732572363959,56.22150050768751,4.009366286181979,0.8831252648437294,B,867.2011659946293,Correct,sub_003_day_15_data.csv,1,300,136.0,Training at home,,,,,,,,,,,,,
3,15,3415,A,15.957674890383522,44.41177093309649,0.7978837445191761,0.6976184664816433,A,482.1767079993151,Correct,sub_003_day_15_data.csv,1,300,136.0,Training at home,,,,,,,,,,,,,
3,15,3416,B,48.399122386866125,26.80453270541128,2.419956119343306,0.421044615151137,B,1103.653458005283,Correct,sub_003_day_15_data.csv,1,300,136.0,Training at home,,,,,,,,,,,,,
3,15,3417,B,39.007583934117065,30.2369344928683,1.9503791967058532,0.4749606563493543,B,1067.14749900857,Correct,sub_003_day_15_data.csv,1,300,136.0,Training at home,,,,,,,,,,,,,
3,15,3418,A,21.3039369033341,36.655305167925256,1.065196845166705,0.5757801871532298,A,540.7271659933031,Correct,sub_003_day_15_data.csv,1,300,136.0,Training at home,,,,,,,,,,,,,
3,15,3419,B,81.73447518822044,62.227397983332125,4.086723759411022,0.9774656817822228,B,444.728665985167,Correct,sub_003_day_15_data.csv,1,300,136.0,Training at home,,,,,,,,,,,,,
3,15,3420,B,32.68062028176507,19.37981338495568,1.6340310140882537,0.3044173967905895,B,714.4834990031086,Correct,sub_003_day_15_data.csv,1,300,136.0,Training at home,,,,,,,,,,,,,
3,15,3421,B,58.13527826251923,31.8372658170176,2.906763913125962,0.5000986020056397,B,665.5033330316655,Correct,sub_003_day_15_data.csv,1,300,136.0,Training at home,,,,,,,,,,,,,
3,15,3422,B,58.48611168072187,34.58935371918684,2.9243055840360936,0.5433282976830808,B,887.2105409973301,Correct,sub_003_day_15_data.csv,1,300,136.0,Training at home,,,,,,,,,,,,,
3,15,3423,A,45.542002624933595,58.71204333037845,2.2771001312466796,0.9222466200198128,A,673.8197910017334,Correct,sub_003_day_15_data.csv,1,300,136.0,Training at home,,,,,,,,,,,,,
3,15,3424,B,74.2722719893753,47.85658213392905,3.713613599468766,0.7517294342893402,B,458.773332007695,Correct,sub_003_day_15_data.csv,1,300,136.0,Training at home,,,,,,,,,,,,,
3,15,3425,A,50.61718229405731,68.00346017841423,2.5308591147028654,1.068195854575961,A,663.213123974856,Correct,sub_003_day_15_data.csv,1,300,137.0,Training at home,,,,,,,,,,,,,
3,15,3426,A,22.790760158321778,51.52658125220368,1.1395380079160886,0.8093776456326031,A,483.4825409925543,Correct,sub_003_day_15_data.csv,1,300,137.0,Training at home,,,,,,,,,,,,,
3,15,3427,A,49.724681685008555,58.782133862661574,2.486234084250428,0.9233475995263468,A,2638.595749041997,Correct,sub_003_day_15_data.csv,1,300,137.0,Training at home,,,,,,,,,,,,,
3,15,3428,B,71.65939181201355,39.30068896909542,3.5829695906006775,0.6173337787316379,B,449.84849996399134,Correct,sub_003_day_15_data.csv,1,300,137.0,Training at home,,,,,,,,,,,,,
3,15,3429,A,27.3999992358024,54.26748158882671,1.3699999617901202,0.8524316074413867,A,583.1008739769459,Correct,sub_003_day_15_data.csv,1,300,137.0,Training at home,,,,,,,,,,,,,
3,15,3430,B,58.285888232364904,29.450195679305295,2.914294411618245,0.4626025919644369,B,946.8886660179124,Correct,sub_003_day_15_data.csv,1,300,137.0,Training at home,,,,,,,,,,,,,
3,15,3431,B,80.27412117953148,63.68448226476631,4.013706058976574,1.0003535081532966,B,1324.0427499986254,Correct,sub_003_day_15_data.csv,1,300,137.0,Training at home,,,,,,,,,,,,,
3,15,3432,A,10.142834251094497,34.20677794249903,0.5071417125547248,0.5373188114356617,A,450.64008299959823,Correct,sub_003_day_15_data.csv,1,300,137.0,Training at home,,,,,,,,,,,,,
3,15,3433,B,55.896554626984994,43.9512360279071,2.7948277313492498,0.6903844011073199,B,435.9918319969438,Correct,sub_003_day_15_data.csv,1,300,137.0,Training at home,,,,,,,,,,,,,
3,15,3434,B,53.24827315087733,21.939184415998703,2.662413657543867,0.344619902935266,B,457.07762404344976,Correct,sub_003_day_15_data.csv,1,300,137.0,Training at home,,,,,,,,,,,,,
3,15,3435,B,88.42157568168344,68.29626038197259,4.421078784084171,1.0727951494183037,B,943.5996240354144,Correct,sub_003_day_15_data.csv,1,300,137.0,Training at home,,,,,,,,,,,,,
3,15,3436,B,51.05585226483381,36.90640949007357,2.5527926132416905,0.5797245246219588,B,750.846958020702,Correct,sub_003_day_15_data.csv,1,300,137.0,Training at home,,,,,,,,,,,,,
3,15,3437,B,69.41140991726837,60.88077180529195,3.4705704958634187,0.956312927241909,B,649.360915995203,Correct,sub_003_day_15_data.csv,1,300,137.0,Training at home,,,,,,,,,,,,,
3,15,3438,A,47.25871057851544,68.77702921616904,2.362935528925772,1.080347048606236,A,798.6738329636864,Correct,sub_003_day_15_data.csv,1,300,137.0,Training at home,,,,,,,,,,,,,
3,15,3439,B,47.71185251114589,35.56769391598548,2.3855926255572943,0.5586960295579517,B,798.0483330320567,Correct,sub_003_day_15_data.csv,1,300,137.0,Training at home,,,,,,,,,,,,,
3,15,3440,A,32.72345726957496,61.59784275263516,1.636172863478748,0.9675766513432896,A,615.8783749560826,Correct,sub_003_day_15_data.csv,1,300,137.0,Training at home,,,,,,,,,,,,,
3,15,3441,A,53.188766024200845,83.0646451183004,2.6594383012100424,1.304776394383479,A,571.5952909667976,Correct,sub_003_day_15_data.csv,1,300,137.0,Training at home,,,,,,,,,,,,,
3,15,3442,A,63.304809119675504,77.34686888576361,3.1652404559837755,1.2149617753484396,A,894.0203749807552,Correct,sub_003_day_15_data.csv,1,300,137.0,Training at home,,,,,,,,,,,,,
3,15,3443,B,36.555398312868284,20.487581828572345,1.8277699156434144,0.321818182812313,B,947.0288320444524,Correct,sub_003_day_15_data.csv,1,300,137.0,Training at home,,,,,,,,,,,,,
3,15,3444,B,41.12957103142118,27.685686915946302,2.056478551571059,0.4348857531236199,B,481.4959159702994,Correct,sub_003_day_15_data.csv,1,300,137.0,Training at home,,,,,,,,,,,,,
3,15,3445,A,48.43005699975305,71.42048057545367,2.4215028499876525,1.1218702854584888,A,493.57437499566,Correct,sub_003_day_15_data.csv,1,300,137.0,Training at home,,,,,,,,,,,,,
3,15,3446,B,42.73425918218345,20.03880508424656,2.1367129591091727,0.3147688141969339,B,1123.552248987835,Correct,sub_003_day_15_data.csv,1,300,137.0,Training at home,,,,,,,,,,,,,
3,15,3447,A,27.37434730510217,46.73908436952767,1.3687173652551083,0.7341758204541082,A,493.2315820478834,Correct,sub_003_day_15_data.csv,1,300,137.0,Training at home,,,,,,,,,,,,,
3,15,3448,B,79.57751992370767,48.31846688401513,3.978875996185383,0.758984702977718,B,484.5606660237536,Correct,sub_003_day_15_data.csv,1,300,137.0,Training at home,,,,,,,,,,,,,
3,15,3449,A,34.09183005841368,62.53085573765927,1.704591502920684,0.9822323850405676,A,523.908207018394,Correct,sub_003_day_15_data.csv,1,300,137.0,Training at home,,,,,,,,,,,,,
3,15,3450,B,45.39482426323732,17.63446904396303,2.269741213161866,0.2770015919923543,B,695.7497909897938,Correct,sub_003_day_15_data.csv,1,300,138.0,Training at home,,,,,,,,,,,,,
3,15,3451,A,42.07119090176846,53.803109008623466,2.103559545088423,0.8451372600089114,A,812.1856240322813,Correct,sub_003_day_15_data.csv,1,300,138.0,Training at home,,,,,,,,,,,,,
3,15,3452,B,54.86336641898759,38.81353127760689,2.7431683209493793,0.6096815236080373,B,514.3387499847449,Correct,sub_003_day_15_data.csv,1,300,138.0,Training at home,,,,,,,,,,,,,
3,15,3453,B,51.506572416584945,35.92529056228173,2.5753286208292474,0.5643131445427151,B,525.2349989605136,Correct,sub_003_day_15_data.csv,1,300,138.0,Training at home,,,,,,,,,,,,,
3,15,3454,B,39.64401771824441,22.6751855562585,1.9822008859122209,0.3561809818116354,B,860.2997079724446,Correct,sub_003_day_15_data.csv,1,300,138.0,Training at home,,,,,,,,,,,,,
3,15,3455,B,49.09354925380041,37.274224050877926,2.4546774626900203,0.5855021422324904,B,944.0039570326916,Correct,sub_003_day_15_data.csv,1,300,138.0,Training at home,,,,,,,,,,,,,
3,15,3456,A,12.720051747607275,35.89025967573387,0.6360025873803637,0.5637628806635775,A,746.3615830056369,Correct,sub_003_day_15_data.csv,1,300,138.0,Training at home,,,,,,,,,,,,,
3,15,3457,A,11.428764027112036,30.717935647199567,0.5714382013556017,0.4825162048134309,A,792.7011660067365,Correct,sub_003_day_15_data.csv,1,300,138.0,Training at home,,,,,,,,,,,,,
3,15,3458,A,37.67776835157125,62.87923857727996,1.8838884175785624,0.9877047698885132,A,944.1627489868551,Correct,sub_003_day_15_data.csv,1,300,138.0,Training at home,,,,,,,,,,,,,
3,15,3459,B,67.5313123347632,48.83546696598478,3.37656561673816,0.7671057212748239,B,717.5991240073927,Correct,sub_003_day_15_data.csv,1,300,138.0,Training at home,,,,,,,,,,,,,
3,15,3460,B,66.8512319274521,37.43528759441773,3.342561596372605,0.5880321224582192,B,433.6303329910152,Correct,sub_003_day_15_data.csv,1,300,138.0,Training at home,,,,,,,,,,,,,
3,15,3461,A,53.54318985181688,73.7896886283506,2.677159492590844,1.1590857185275223,A,958.2465409766884,Correct,sub_003_day_15_data.csv,1,300,138.0,Training at home,,,,,,,,,,,,,
3,15,3462,A,10.907977026233809,31.64903232198508,0.5453988513116904,0.4971418371798712,A,456.7578739952296,Correct,sub_003_day_15_data.csv,1,300,138.0,Training at home,,,,,,,,,,,,,
3,15,3463,B,57.14742347309157,32.637846357906675,2.8573711736545784,0.5126740917349599,B,1115.054333000444,Correct,sub_003_day_15_data.csv,1,300,138.0,Training at home,,,,,,,,,,,,,
3,15,3464,B,64.30335603238643,32.74018044500917,3.2151678016193217,0.5142815518162251,B,641.9368750066496,Correct,sub_003_day_15_data.csv,1,300,138.0,Training at home,,,,,,,,,,,,,
3,15,3465,A,27.97077887069306,45.060445756260975,1.3985389435346531,0.7078078267767542,A,569.1743749775924,Correct,sub_003_day_15_data.csv,1,300,138.0,Training at home,,,,,,,,,,,,,
3,15,3466,B,60.34572981982055,31.324802251355404,3.0172864909910277,0.4920488431400557,B,479.8056660220027,Correct,sub_003_day_15_data.csv,1,300,138.0,Training at home,,,,,,,,,,,,,
3,15,3467,A,46.31660381107477,76.20430573944596,2.3158301905537386,1.1970144354147696,A,807.6777080423199,Correct,sub_003_day_15_data.csv,1,300,138.0,Training at home,,,,,,,,,,,,,
3,15,3468,A,42.67246919484774,72.23002090243823,2.133623459742387,1.1345865151786856,A,589.1214159782976,Correct,sub_003_day_15_data.csv,1,300,138.0,Training at home,,,,,,,,,,,,,
3,15,3469,A,21.491489748731315,49.36000879925617,1.0745744874365657,0.7753452051243536,A,816.4951239596121,Correct,sub_003_day_15_data.csv,1,300,138.0,Training at home,,,,,,,,,,,,,
3,15,3470,A,59.0630777467495,77.56958740376729,2.953153887337475,1.2184602296483331,A,453.5391660174355,Correct,sub_003_day_15_data.csv,1,300,138.0,Training at home,,,,,,,,,,,,,
3,15,3471,A,16.414269638308266,36.10011758831115,0.8207134819154134,0.56705932104583,A,545.9706240217201,Correct,sub_003_day_15_data.csv,1,300,138.0,Training at home,,,,,,,,,,,,,
3,15,3472,A,48.437397035554085,77.09117736516748,2.4218698517777044,1.2109453823349896,A,500.13712397776544,Correct,sub_003_day_15_data.csv,1,300,138.0,Training at home,,,,,,,,,,,,,
3,15,3473,B,65.26924873267373,48.80419976718733,3.263462436633686,0.766614577264622,B,501.01762398844585,Correct,sub_003_day_15_data.csv,1,300,138.0,Training at home,,,,,,,,,,,,,
3,15,3474,A,28.45779311835738,42.45209492475186,1.422889655917869,0.666835947725485,A,603.495791030582,Correct,sub_003_day_15_data.csv,1,300,138.0,Training at home,,,,,,,,,,,,,
3,15,3475,B,46.16653757100234,27.6085317316758,2.3083268785501168,0.4336738023231668,B,825.4750829655677,Correct,sub_003_day_15_data.csv,1,300,139.0,Training at home,,,,,,,,,,,,,
3,15,3476,B,45.13432576521272,30.753163692245657,2.256716288260636,0.4830695656510165,B,546.626499039121,Correct,sub_003_day_15_data.csv,1,300,139.0,Training at home,,,,,,,,,,,,,
3,15,3477,A,42.080958765488965,68.91340458314684,2.1040479382744484,1.0824892278613765,A,642.1510000363924,Correct,sub_003_day_15_data.csv,1,300,139.0,Training at home,,,,,,,,,,,,,
3,15,3478,B,74.48482793077562,49.42415878115387,3.724241396538781,0.7763528706836423,B,634.7966660396196,Correct,sub_003_day_15_data.csv,1,300,139.0,Training at home,,,,,,,,,,,,,
3,15,3479,A,60.42817970205057,83.31420318420831,3.0214089851025285,1.308696443315981,A,898.5988330096006,Correct,sub_003_day_15_data.csv,1,300,139.0,Training at home,,,,,,,,,,,,,
3,15,3480,A,20.269924351231108,44.597306395246925,1.0134962175615554,0.7005328507060041,A,425.330790982116,Correct,sub_003_day_15_data.csv,1,300,139.0,Training at home,,,,,,,,,,,,,
3,15,3481,B,39.73024746315134,18.31792541593333,1.9865123731575671,0.2877372995785095,A,465.0156659772619,Incorrect,sub_003_day_15_data.csv,0,300,139.0,Training at home,,,,,,,,,,,,,
3,15,3482,A,31.315934065519023,64.61557241563453,1.5657967032759512,1.0149790380422836,A,510.1940830354579,Correct,sub_003_day_15_data.csv,1,300,139.0,Training at home,,,,,,,,,,,,,
3,15,3483,B,73.19778271181514,47.0685359401253,3.659889135590757,0.739350833623624,B,530.7455000001937,Correct,sub_003_day_15_data.csv,1,300,139.0,Training at home,,,,,,,,,,,,,
3,15,3484,B,54.80642328791216,31.5771736933073,2.740321164395608,0.4960130844801154,B,553.7842069752514,Correct,sub_003_day_15_data.csv,1,300,139.0,Training at home,,,,,,,,,,,,,
3,15,3485,B,31.78943748645766,14.154946310756678,1.589471874322883,0.2223453767091556,B,552.420332969632,Correct,sub_003_day_15_data.csv,1,300,139.0,Training at home,,,,,,,,,,,,,
3,15,3486,B,82.33761827015061,54.07474722800285,4.116880913507531,0.8494041431810939,B,564.002541010268,Correct,sub_003_day_15_data.csv,1,300,139.0,Training at home,,,,,,,,,,,,,
3,15,3487,B,65.6744227478244,41.73871394022079,3.2837211373912196,0.6556301854244176,B,493.2361660175957,Correct,sub_003_day_15_data.csv,1,300,139.0,Training at home,,,,,,,,,,,,,
3,15,3488,B,76.33859193865024,60.11238025270982,3.816929596932512,0.9442430609585468,B,500.36333297612146,Correct,sub_003_day_15_data.csv,1,300,139.0,Training at home,,,,,,,,,,,,,
3,15,3489,A,50.47998349920981,72.09138295112933,2.5239991749604904,1.132408795331982,A,548.4724160050973,Correct,sub_003_day_15_data.csv,1,300,139.0,Training at home,,,,,,,,,,,,,
3,15,3490,B,66.96239270923358,55.58061332427528,3.3481196354616793,0.8730582325077909,B,518.0384990526363,Correct,sub_003_day_15_data.csv,1,300,139.0,Training at home,,,,,,,,,,,,,
3,15,3491,A,54.4582631805013,67.65030686814872,2.722913159025065,1.0626485353503556,A,569.2489990033209,Correct,sub_003_day_15_data.csv,1,300,139.0,Training at home,,,,,,,,,,,,,
3,15,3492,A,18.149053246729796,43.378405293048615,0.9074526623364898,0.6813863969654106,A,539.4569160416722,Correct,sub_003_day_15_data.csv,1,300,139.0,Training at home,,,,,,,,,,,,,
3,15,3493,B,76.52489572991902,45.919668155331905,3.826244786495951,0.7213044606603594,B,702.9526659753174,Correct,sub_003_day_15_data.csv,1,300,139.0,Training at home,,,,,,,,,,,,,
3,15,3494,A,32.48522701050282,54.04348849753739,1.624261350525141,0.8489131321911398,A,812.539499020204,Correct,sub_003_day_15_data.csv,1,300,139.0,Training at home,,,,,,,,,,,,,
3,15,3495,A,67.24818512013609,86.29460586508245,3.3624092560068046,1.3555124991508485,A,781.1117909732275,Correct,sub_003_day_15_data.csv,1,300,139.0,Training at home,,,,,,,,,,,,,
3,15,3496,B,75.03823668325978,57.13516081783507,3.7519118341629896,0.8974770074349103,B,472.7871239883825,Correct,sub_003_day_15_data.csv,1,300,139.0,Training at home,,,,,,,,,,,,,
3,15,3497,B,50.50574975938942,39.58918704317263,2.5252874879694707,0.6218654958821167,B,728.6865410278551,Correct,sub_003_day_15_data.csv,1,300,139.0,Training at home,,,,,,,,,,,,,
3,15,3498,A,40.61735551677593,71.2729141753483,2.0308677758387965,1.1195523178660505,A,472.04150003381073,Correct,sub_003_day_15_data.csv,1,300,139.0,Training at home,,,,,,,,,,,,,
3,15,3499,B,72.38222589294386,54.06497747622079,3.6191112946471935,0.8492506802789644,B,434.5595000195317,Correct,sub_003_day_15_data.csv,1,300,139.0,Training at home,,,,,,,,,,,,,
3,15,3500,B,61.19805583200457,50.223211215551416,3.0599027916002286,0.7889043569723242,B,470.5039160326123,Correct,sub_003_day_15_data.csv,1,300,140.0,Training at home,,,,,,,,,,,,,
3,15,3501,B,62.41257048795642,39.80313306100263,3.120628524397821,0.6252261520715143,B,448.6502499785274,Correct,sub_003_day_15_data.csv,1,300,140.0,Training at home,,,,,,,,,,,,,
3,15,3502,B,68.19638839980901,36.1270059148749,3.40981941999045,0.5674816818918299,B,539.8587079835124,Correct,sub_003_day_15_data.csv,1,300,140.0,Training at home,,,,,,,,,,,,,
3,15,3503,B,45.34021583155902,24.43029117287017,2.267010791577951,0.3837501163687424,B,574.3974990327843,Correct,sub_003_day_15_data.csv,1,300,140.0,Training at home,,,,,,,,,,,,,
3,15,3504,A,39.11053763796034,69.60299251753145,1.955526881898017,1.093321249804711,A,912.392831989564,Correct,sub_003_day_15_data.csv,1,300,140.0,Training at home,,,,,,,,,,,,,
3,15,3505,B,68.06688478615663,36.16533201560753,3.4033442393078315,0.5680837068743418,B,1079.273123992607,Correct,sub_003_day_15_data.csv,1,300,140.0,Training at home,,,,,,,,,,,,,
3,15,3506,B,84.40957889281589,65.39125807427374,4.220478944640794,1.0271634798756633,B,779.2890410055406,Correct,sub_003_day_15_data.csv,1,300,140.0,Training at home,,,,,,,,,,,,,
3,15,3507,A,63.44437733612178,78.51321651747504,3.172218866806089,1.233282721105022,A,686.2678330508061,Correct,sub_003_day_15_data.csv,1,300,140.0,Training at home,,,,,,,,,,,,,
3,15,3508,B,48.00464765015917,24.45944039680587,2.400232382507958,0.3842079913076136,B,471.1376660270616,Correct,sub_003_day_15_data.csv,1,300,140.0,Training at home,,,,,,,,,,,,,
3,15,3509,B,72.4377186847596,47.20433534851833,3.62188593423798,0.7414839657424709,B,452.943166019395,Correct,sub_003_day_15_data.csv,1,300,140.0,Training at home,,,,,,,,,,,,,
3,15,3510,A,30.77681473483537,46.219109000698815,1.5388407367417685,0.7260080664603064,A,922.8652080055326,Correct,sub_003_day_15_data.csv,1,300,140.0,Training at home,,,,,,,,,,,,,
3,15,3511,B,50.06168436117518,40.74686174173022,2.5030842180587594,0.6400502075232934,B,1265.9347080043517,Correct,sub_003_day_15_data.csv,1,300,140.0,Training at home,,,,,,,,,,,,,
3,15,3512,A,14.02877919705189,35.15295087926201,0.7014389598525945,0.5521812611714618,A,825.2593330107629,Correct,sub_003_day_15_data.csv,1,300,140.0,Training at home,,,,,,,,,,,,,
3,15,3513,A,51.56835241283475,75.9258517256782,2.578417620641738,1.1926404899946923,A,810.6409999891184,Correct,sub_003_day_15_data.csv,1,300,140.0,Training at home,,,,,,,,,,,,,
3,15,3514,B,48.93972439031844,34.960574199294435,2.446986219515922,0.5491594153489212,B,434.00349997682497,Correct,sub_003_day_15_data.csv,1,300,140.0,Training at home,,,,,,,,,,,,,
3,15,3515,B,46.84803067828127,37.60210016314067,2.3424015339140634,0.5906524081603515,B,2766.8752489844337,Correct,sub_003_day_15_data.csv,1,300,140.0,Training at home,,,,,,,,,,,,,
3,15,3516,A,36.685985401199154,65.75886409214712,1.834299270059958,1.032937821701495,A,817.141207982786,Correct,sub_003_day_15_data.csv,1,300,140.0,Training at home,,,,,,,,,,,,,
3,15,3517,A,57.15700306391689,69.52621208003585,2.8578501531958445,1.0921151855128328,A,1567.026957985945,Correct,sub_003_day_15_data.csv,1,300,140.0,Training at home,,,,,,,,,,,,,
3,15,3518,B,68.17375857389972,47.78692024463569,3.408687928694986,0.7506351878911443,B,1508.7043740204535,Correct,sub_003_day_15_data.csv,1,300,140.0,Training at home,,,,,,,,,,,,,
3,15,3519,A,43.55624978378162,70.31410136229398,2.177812489189081,1.104491321417754,A,555.3145820158534,Correct,sub_003_day_15_data.csv,1,300,140.0,Training at home,,,,,,,,,,,,,
3,15,3520,A,19.683469553372436,35.22297164581257,0.9841734776686216,0.5532811448004318,A,717.5698330393061,Correct,sub_003_day_15_data.csv,1,300,140.0,Training at home,,,,,,,,,,,,,
3,15,3521,A,17.73383299941493,38.85790128561969,0.8866916499707465,0.610378486064101,A,672.1829570014961,Correct,sub_003_day_15_data.csv,1,300,140.0,Training at home,,,,,,,,,,,,,
3,15,3522,A,51.11422941183813,74.42822853369523,2.5557114705919064,1.169115879905796,A,600.757374020759,Correct,sub_003_day_15_data.csv,1,300,140.0,Training at home,,,,,,,,,,,,,
3,15,3523,A,67.0793358721725,83.05373693804734,3.3539667936086257,1.3046050490887438,A,635.3750409907661,Correct,sub_003_day_15_data.csv,1,300,140.0,Training at home,,,,,,,,,,,,,
3,15,3524,A,11.862124445464689,35.49837329157265,0.5931062222732344,0.5576071437359638,A,547.0933329779655,Correct,sub_003_day_15_data.csv,1,300,140.0,Training at home,,,,,,,,,,,,,
3,15,3525,B,37.560810901905626,22.362523154476115,1.8780405450952813,0.351269692289169,B,493.8922069850378,Correct,sub_003_day_15_data.csv,1,300,141.0,Training at home,,,,,,,,,,,,,
3,15,3526,A,31.193001898842457,40.04060744981559,1.5596500949421226,0.628956391048067,A,746.2322490173392,Correct,sub_003_day_15_data.csv,1,300,141.0,Training at home,,,,,,,,,,,,,
3,15,3527,B,56.00999305855154,27.562213173534623,2.8004996529275767,0.432946232113261,B,481.07412399258465,Correct,sub_003_day_15_data.csv,1,300,141.0,Training at home,,,,,,,,,,,,,
3,15,3528,B,48.80671344887486,21.43570097342799,2.440335672443743,0.3367112035133447,B,472.1179159823805,Correct,sub_003_day_15_data.csv,1,300,141.0,Training at home,,,,,,,,,,,,,
3,15,3529,A,38.74530273094415,52.67205929166181,1.9372651365472076,0.8273707726006538,A,1173.1507079675794,Correct,sub_003_day_15_data.csv,1,300,141.0,Training at home,,,,,,,,,,,,,
3,15,3530,A,66.9775659391361,87.27624391626492,3.3488782969568045,1.3709320336012438,A,635.2166240103543,Correct,sub_003_day_15_data.csv,1,300,141.0,Training at home,,,,,,,,,,,,,
3,15,3531,A,38.87202757763448,55.77799233290086,1.9436013788817237,0.8761586547251458,A,746.193333005067,Correct,sub_003_day_15_data.csv,1,300,141.0,Training at home,,,,,,,,,,,,,
3,15,3532,B,40.62818658405115,30.007405701645883,2.0314093292025577,0.4713552265278959,B,1062.86991602974,Correct,sub_003_day_15_data.csv,1,300,141.0,Training at home,,,,,,,,,,,,,
3,15,3533,B,82.51233946084693,63.950273156710395,4.125616973042346,1.0045285417209096,B,1038.285915972665,Correct,sub_003_day_15_data.csv,1,300,141.0,Training at home,,,,,,,,,,,,,
3,15,3534,B,75.62075595742782,56.66034857453187,3.781037797871391,0.890018674157931,B,595.1941239763983,Correct,sub_003_day_15_data.csv,1,300,141.0,Training at home,,,,,,,,,,,,,
3,15,3535,A,28.437447942660917,53.27603953294241,1.421872397133046,0.8368580720452565,A,569.7431239532307,Correct,sub_003_day_15_data.csv,1,300,141.0,Training at home,,,,,,,,,,,,,
3,15,3536,A,49.57285681014861,70.46284774247836,2.4786428405074306,1.1068278240939309,A,860.9148330288008,Correct,sub_003_day_15_data.csv,1,300,141.0,Training at home,,,,,,,,,,,,,
3,15,3537,B,51.97623593545376,21.02894459128524,2.598811796772688,0.3303218892036426,B,821.1017490248196,Correct,sub_003_day_15_data.csv,1,300,141.0,Training at home,,,,,,,,,,,,,
3,15,3538,A,33.64655319364753,49.8039561619327,1.6823276596823762,0.7823187139901794,A,702.5022489833646,Correct,sub_003_day_15_data.csv,1,300,141.0,Training at home,,,,,,,,,,,,,
3,15,3539,A,40.72922723425095,51.279562252140806,2.0364613617125475,0.8054974802531302,A,2358.6784990038723,Correct,sub_003_day_15_data.csv,1,300,141.0,Training at home,,,,,,,,,,,,,
3,15,3540,A,64.01562981694718,87.82552814502971,3.2007814908473593,1.3795601700903446,A,499.4287500157952,Correct,sub_003_day_15_data.csv,1,300,141.0,Training at home,,,,,,,,,,,,,
3,15,3541,A,42.94392728316641,61.02608995493103,2.1471963641583205,0.958595579398606,A,919.086916022934,Correct,sub_003_day_15_data.csv,1,300,141.0,Training at home,,,,,,,,,,,,,
3,15,3542,B,75.42750514111714,45.924555262494565,3.771375257055857,0.7213812271601571,B,722.4085410125554,Correct,sub_003_day_15_data.csv,1,300,141.0,Training at home,,,,,,,,,,,,,
3,15,3543,A,63.974928605671664,87.92387354023111,3.1987464302835833,1.3811049759457403,A,693.630624038633,Correct,sub_003_day_15_data.csv,1,300,141.0,Training at home,,,,,,,,,,,,,
3,15,3544,B,48.968126620458264,29.284134751062325,2.4484063310229134,0.4599941130033548,B,628.9678739849478,Correct,sub_003_day_15_data.csv,1,300,141.0,Training at home,,,,,,,,,,,,,
3,15,3545,A,37.91475766271151,63.50304388478081,1.8957378831355751,0.9975034807450882,A,615.7600409933366,Correct,sub_003_day_15_data.csv,1,300,141.0,Training at home,,,,,,,,,,,,,
3,15,3546,B,40.18397241044302,26.25263505627142,2.0091986205221506,0.4123754271507808,B,507.73100001970306,Correct,sub_003_day_15_data.csv,1,300,141.0,Training at home,,,,,,,,,,,,,
3,15,3547,B,50.16873736046264,36.52897269081703,2.508436868023132,0.5737957612432649,B,1246.4545409893617,Correct,sub_003_day_15_data.csv,1,300,141.0,Training at home,,,,,,,,,,,,,
3,15,3548,A,24.925431481611096,45.24925912037522,1.2462715740805548,0.7107737001647587,A,1388.9269990031607,Correct,sub_003_day_15_data.csv,1,300,141.0,Training at home,,,,,,,,,,,,,
3,15,3549,A,60.08242318018397,81.46607697944012,3.0041211590091983,1.279666144776948,A,1133.930582960602,Correct,sub_003_day_15_data.csv,1,300,141.0,Training at home,,,,,,,,,,,,,
3,15,3550,B,83.44214944361237,62.60758309273639,4.172107472180619,0.983437615515766,B,1434.6732909907587,Correct,sub_003_day_15_data.csv,1,300,142.0,Training at home,,,,,,,,,,,,,
3,15,3551,A,44.79584287749266,64.73652922302718,2.2397921438746327,1.0168790231298157,A,834.7766660153866,Correct,sub_003_day_15_data.csv,1,300,142.0,Training at home,,,,,,,,,,,,,
3,15,3552,A,57.16256948008848,80.60694605840513,2.8581284740044235,1.2661709478269711,A,539.8326659924351,Correct,sub_003_day_15_data.csv,1,300,142.0,Training at home,,,,,,,,,,,,,
3,15,3553,A,23.859025644831604,50.05775175852747,1.1929512822415802,0.7863053258990572,A,792.6342069986276,Correct,sub_003_day_15_data.csv,1,300,142.0,Training at home,,,,,,,,,,,,,
3,15,3554,A,17.135380649864835,40.83530499315887,0.8567690324932417,0.6414394708680325,A,801.6360409674235,Correct,sub_003_day_15_data.csv,1,300,142.0,Training at home,,,,,,,,,,,,,
3,15,3555,B,45.33456413581324,32.310766667915374,2.266728206790662,0.5075363359788845,B,576.446873950772,Correct,sub_003_day_15_data.csv,1,300,142.0,Training at home,,,,,,,,,,,,,
3,15,3556,A,40.387018924752034,57.22487551708972,2.019350946237602,0.8988862426353974,A,621.9670409918763,Correct,sub_003_day_15_data.csv,1,300,142.0,Training at home,,,,,,,,,,,,,
3,15,3557,B,62.267134787820645,44.22329303225699,3.1133567393910324,0.6946578625384362,B,543.5897490242496,Correct,sub_003_day_15_data.csv,1,300,142.0,Training at home,,,,,,,,,,,,,
3,15,3558,A,30.68872718820721,46.634164258377965,1.5344363594103607,0.7325277392020995,A,1041.1264160065912,Correct,sub_003_day_15_data.csv,1,300,142.0,Training at home,,,,,,,,,,,,,
3,15,3559,B,83.42883110794482,61.434464517532795,4.171441555397241,0.9650103120275192,B,481.22624901589006,Correct,sub_003_day_15_data.csv,1,300,142.0,Training at home,,,,,,,,,,,,,
3,15,3560,B,43.92280310366905,26.12390241607786,2.1961401551834525,0.4103532995672344,B,519.1033739829436,Correct,sub_003_day_15_data.csv,1,300,142.0,Training at home,,,,,,,,,,,,,
3,15,3561,B,53.723331870287225,44.57436924123862,2.6861665935143613,0.7001725547333705,B,633.4161239792593,Correct,sub_003_day_15_data.csv,1,300,142.0,Training at home,,,,,,,,,,,,,
3,15,3562,B,49.360436787366496,25.81090171138287,2.468021839368325,0.4054366959950432,B,632.0177499437705,Correct,sub_003_day_15_data.csv,1,300,142.0,Training at home,,,,,,,,,,,,,
3,15,3563,A,57.9340745932584,81.36003512543749,2.89670372966292,1.2780004432294096,A,614.3640409572981,Correct,sub_003_day_15_data.csv,1,300,142.0,Training at home,,,,,,,,,,,,,
3,15,3564,A,57.09360085729389,77.49647443366061,2.8546800428646946,1.217311773799487,A,528.0502500245348,Correct,sub_003_day_15_data.csv,1,300,142.0,Training at home,,,,,,,,,,,,,
3,15,3565,B,87.84908839825613,64.92185158678247,4.392454419912807,1.0197900600124132,B,1105.8902069926262,Correct,sub_003_day_15_data.csv,1,300,142.0,Training at home,,,,,,,,,,,,,
3,15,3566,B,63.33430401581163,54.53473541265637,3.1667152007905814,0.8566296206893219,B,789.4588739727624,Correct,sub_003_day_15_data.csv,1,300,142.0,Training at home,,,,,,,,,,,,,
3,15,3567,B,66.68846407616532,46.43592028613619,3.3344232038082655,0.7294137301680336,B,1219.7288740426302,Correct,sub_003_day_15_data.csv,1,300,142.0,Training at home,,,,,,,,,,,,,
3,15,3568,B,80.43522368409683,61.03279582413866,4.021761184204841,0.9587009149457992,B,1105.873956985306,Correct,sub_003_day_15_data.csv,1,300,142.0,Training at home,,,,,,,,,,,,,
3,15,3569,A,61.32004322720296,75.584207503632,3.066002161360148,1.187273955104084,A,958.7758739944549,Correct,sub_003_day_15_data.csv,1,300,142.0,Training at home,,,,,,,,,,,,,
3,15,3570,B,52.295454105243834,42.93013571974983,2.6147727052621916,0.6743449949738941,B,733.5262490087189,Correct,sub_003_day_15_data.csv,1,300,142.0,Training at home,,,,,,,,,,,,,
3,15,3571,B,50.35543457756103,21.35999979703476,2.5177717288780515,0.3355220922152194,B,527.5132490205579,Correct,sub_003_day_15_data.csv,1,300,142.0,Training at home,,,,,,,,,,,,,
3,15,3572,A,46.8089087660488,77.2024909919931,2.34044543830244,1.2126938926963886,A,917.5900409463792,Correct,sub_003_day_15_data.csv,1,300,142.0,Training at home,,,,,,,,,,,,,
3,15,3573,B,60.87275893614933,52.33263588279998,3.0436379468074666,0.8220391221619701,B,398.2902489951812,Correct,sub_003_day_15_data.csv,1,300,142.0,Training at home,,,,,,,,,,,,,
3,15,3574,B,70.31870282847382,46.86531213780905,3.515935141423691,0.7361586016016674,B,732.7586250030436,Correct,sub_003_day_15_data.csv,1,300,142.0,Training at home,,,,,,,,,,,,,
3,15,3575,A,31.08044306131815,54.39109321475288,1.5540221530659073,0.8543732943209263,A,572.578166029416,Correct,sub_003_day_15_data.csv,1,300,143.0,Training at home,,,,,,,,,,,,,
3,15,3576,A,67.90059672250749,89.39217572149073,3.3950298361253743,1.4041690126752155,A,550.311665982008,Correct,sub_003_day_15_data.csv,1,300,143.0,Training at home,,,,,,,,,,,,,
3,15,3577,B,60.026998388291645,41.91216396654049,3.001349919414582,0.6583547320666722,B,616.0596659756266,Correct,sub_003_day_15_data.csv,1,300,143.0,Training at home,,,,,,,,,,,,,
3,15,3578,B,43.04688726180717,17.554347581646624,2.1523443630903585,0.2757430470053139,B,595.7813740242273,Correct,sub_003_day_15_data.csv,1,300,143.0,Training at home,,,,,,,,,,,,,
3,15,3579,A,38.95753076350217,50.32994791952767,1.9478765381751089,0.7905809731977249,A,574.5351659716107,Correct,sub_003_day_15_data.csv,1,300,143.0,Training at home,,,,,,,,,,,,,
3,15,3580,A,51.53166161087193,66.54775964736439,2.576583080543596,1.045329764105096,A,475.7680410402827,Correct,sub_003_day_15_data.csv,1,300,143.0,Training at home,,,,,,,,,,,,,
3,15,3581,A,52.95371299630489,82.3891078742366,2.6476856498152443,1.2941650801675937,A,743.7164570437744,Correct,sub_003_day_15_data.csv,1,300,143.0,Training at home,,,,,,,,,,,,,
3,15,3582,A,18.552253860472582,46.9698079402518,0.927612693023629,0.7378000178280929,A,600.8674160111696,Correct,sub_003_day_15_data.csv,1,300,143.0,Training at home,,,,,,,,,,,,,
3,15,3583,A,67.13114914297196,81.24921586879988,3.356557457148598,1.276259698416765,A,508.30149999819696,Correct,sub_003_day_15_data.csv,1,300,143.0,Training at home,,,,,,,,,,,,,
3,15,3584,A,43.60962600131618,66.77324161838361,2.180481300065809,1.048871626623451,A,580.6098330067471,Correct,sub_003_day_15_data.csv,1,300,143.0,Training at home,,,,,,,,,,,,,
3,15,3585,A,17.384903475295374,34.01954641818048,0.8692451737647687,0.5343777855290638,A,523.3801249996759,Correct,sub_003_day_15_data.csv,1,300,143.0,Training at home,,,,,,,,,,,,,
3,15,3586,B,76.69225439120353,45.39911534037885,3.834612719560176,0.7131276361640494,B,859.0499160345644,Correct,sub_003_day_15_data.csv,1,300,143.0,Training at home,,,,,,,,,,,,,
3,15,3587,A,26.773800197586816,44.86675627153688,1.3386900098793406,0.7047653594653203,A,513.9422069769353,Correct,sub_003_day_15_data.csv,1,300,143.0,Training at home,,,,,,,,,,,,,
3,15,3588,A,55.467506714691034,75.28624239135418,2.773375335734552,1.182593530065294,A,690.2025410090573,Correct,sub_003_day_15_data.csv,1,300,143.0,Training at home,,,,,,,,,,,,,
3,15,3589,B,32.759521981746516,11.4275442518124,1.6379760990873258,0.1795034453503305,B,637.8754990291782,Correct,sub_003_day_15_data.csv,1,300,143.0,Training at home,,,,,,,,,,,,,
3,15,3590,A,28.07867335475167,40.04791630755493,1.4039336677375835,0.6290711983169672,A,627.9102069674991,Correct,sub_003_day_15_data.csv,1,300,143.0,Training at home,,,,,,,,,,,,,
3,15,3591,B,37.62358375333121,12.709559779984598,1.881179187666561,0.1996412981757996,B,1130.2722080145031,Correct,sub_003_day_15_data.csv,1,300,143.0,Training at home,,,,,,,,,,,,,
3,15,3592,A,49.72981754575379,80.08545820388007,2.4864908772876895,1.2579794357634102,A,1037.6302910153754,Correct,sub_003_day_15_data.csv,1,300,143.0,Training at home,,,,,,,,,,,,,
3,15,3593,B,71.66499216970936,52.51236528384785,3.583249608485468,0.8248623049918005,B,527.1483329706825,Correct,sub_003_day_15_data.csv,1,300,143.0,Training at home,,,,,,,,,,,,,
3,15,3594,B,58.304928613052866,51.07706013866926,2.9152464306526436,0.8023165844930369,A,573.4052489860915,Incorrect,sub_003_day_15_data.csv,0,300,143.0,Training at home,,,,,,,,,,,,,
3,15,3595,B,63.70764407226139,39.166195217731776,3.1853822036130692,0.6152211558254492,B,481.50470794644207,Correct,sub_003_day_15_data.csv,1,300,143.0,Training at home,,,,,,,,,,,,,
3,15,3596,A,46.562876429567446,63.50355384135789,2.3281438214783723,0.9975114911242692,A,1349.40354101127,Correct,sub_003_day_15_data.csv,1,300,143.0,Training at home,,,,,,,,,,,,,
3,15,3597,B,59.40375274821692,47.7383906145146,2.9701876374108456,0.7498728862437949,B,875.8660409948789,Correct,sub_003_day_15_data.csv,1,300,143.0,Training at home,,,,,,,,,,,,,
3,15,3598,B,39.4860943485644,23.328676835698214,1.97430471742822,0.3664459988249994,B,552.220166020561,Correct,sub_003_day_15_data.csv,1,300,143.0,Training at home,,,,,,,,,,,,,
3,15,3599,B,51.14741595681199,28.74035591839768,2.5573707978405995,0.4514524550739703,B,687.5595829915255,Correct,sub_003_day_15_data.csv,1,300,143.0,Training at home,,,,,,,,,,,,,
