subject,day,trial,cat,x,y,xt,yt,resp,rt,fb,f_name,acc,n_trials,block,session_type,ns_left_digit,ns_right_digit,ns_left_size,ns_right_size,ns_congruent,ns_cue,ns_correct_side,ns_resp,ns_rt,ns_fb,acc_stroop,acc_stroop_mean,resp_key
3,20,4500,B,47.284299992253295,27.051181969939712,2.3642149996126647,0.4249189727384163,B,950.6242490024306,Correct,sub_003_day_20_data.csv,1,300,180.0,Training at home,,,,,,,,,,,,,
3,20,4501,B,59.371435992599615,32.82719427969802,2.9685717996299807,0.5156483619353208,B,567.5813330162782,Correct,sub_003_day_20_data.csv,1,300,180.0,Training at home,,,,,,,,,,,,,
3,20,4502,B,53.4740811791192,30.201737887646185,2.67370405895596,0.4744077893673688,B,413.2603750040289,Correct,sub_003_day_20_data.csv,1,300,180.0,Training at home,,,,,,,,,,,,,
3,20,4503,A,26.251906116013267,38.24681655083542,1.3125953058006632,0.6007795894965055,A,591.1179579852615,Correct,sub_003_day_20_data.csv,1,300,180.0,Training at home,,,,,,,,,,,,,
3,20,4504,A,33.93525664093029,62.35012620318568,1.6967628320465145,0.979393492151623,A,521.3269160012715,Correct,sub_003_day_20_data.csv,1,300,180.0,Training at home,,,,,,,,,,,,,
3,20,4505,A,39.312569304630166,49.75031762096111,1.965628465231508,0.7814761617588513,A,584.1077920049429,Correct,sub_003_day_20_data.csv,1,300,180.0,Training at home,,,,,,,,,,,,,
3,20,4506,A,50.93079814853685,79.17440168148029,2.546539907426842,1.2436685933745293,A,448.04883300093934,Correct,sub_003_day_20_data.csv,1,300,180.0,Training at home,,,,,,,,,,,,,
3,20,4507,B,40.834928036484186,28.007314974596376,2.0417464018242093,0.4399378748548368,B,587.7001670014579,Correct,sub_003_day_20_data.csv,1,300,180.0,Training at home,,,,,,,,,,,,,
3,20,4508,A,42.26536264672049,64.5400677666213,2.1132681323360245,1.0137930137890243,A,444.870292005362,Correct,sub_003_day_20_data.csv,1,300,180.0,Training at home,,,,,,,,,,,,,
3,20,4509,B,83.18634102445493,58.74387739381891,4.159317051222747,0.9227466683190052,A,794.8268750042189,Incorrect,sub_003_day_20_data.csv,0,300,180.0,Training at home,,,,,,,,,,,,,
3,20,4510,A,57.62058329737113,67.10248136469262,2.8810291648685564,1.0540433124648216,A,1094.9029990006238,Correct,sub_003_day_20_data.csv,1,300,180.0,Training at home,,,,,,,,,,,,,
3,20,4511,B,74.66813296904553,43.64732253214503,3.733406648452276,0.6856105390792554,B,543.8082919863518,Correct,sub_003_day_20_data.csv,1,300,180.0,Training at home,,,,,,,,,,,,,
3,20,4512,A,28.96639219826639,45.81707836218201,1.4483196099133195,0.7196929839578944,A,590.9188750083558,Correct,sub_003_day_20_data.csv,1,300,180.0,Training at home,,,,,,,,,,,,,
3,20,4513,B,55.59106791664374,32.28468108994362,2.779553395832187,0.507126584678281,B,387.80837500235066,Correct,sub_003_day_20_data.csv,1,300,180.0,Training at home,,,,,,,,,,,,,
3,20,4514,A,30.261836087185756,44.73629851474782,1.513091804359288,0.7027161338136587,A,489.8121670121327,Correct,sub_003_day_20_data.csv,1,300,180.0,Training at home,,,,,,,,,,,,,
3,20,4515,B,49.43221729322343,40.980931334696855,2.4716108646611716,0.6437269640917569,B,721.8297079962213,Correct,sub_003_day_20_data.csv,1,300,180.0,Training at home,,,,,,,,,,,,,
3,20,4516,A,43.43971101119297,74.86482434887243,2.1719855505596484,1.1759739109335394,A,470.6562909996137,Correct,sub_003_day_20_data.csv,1,300,180.0,Training at home,,,,,,,,,,,,,
3,20,4517,B,72.94430065270697,59.97728301749204,3.647215032635348,0.9421209585501442,B,598.2593329972588,Correct,sub_003_day_20_data.csv,1,300,180.0,Training at home,,,,,,,,,,,,,
3,20,4518,B,75.11042010301503,56.16832952314541,3.755521005150752,0.8822900569716216,B,1504.5766660186928,Correct,sub_003_day_20_data.csv,1,300,180.0,Training at home,,,,,,,,,,,,,
3,20,4519,B,64.9784166740252,48.8608225182092,3.24892083370126,0.7675040053578038,B,496.16170799708925,Correct,sub_003_day_20_data.csv,1,300,180.0,Training at home,,,,,,,,,,,,,
3,20,4520,B,68.98051662676508,43.922951501356984,3.4490258313382536,0.6899401088032194,B,376.5619159967173,Correct,sub_003_day_20_data.csv,1,300,180.0,Training at home,,,,,,,,,,,,,
3,20,4521,A,30.452943794928345,63.444268254105374,1.522647189746417,0.9965802352973878,A,439.9156250001397,Correct,sub_003_day_20_data.csv,1,300,180.0,Training at home,,,,,,,,,,,,,
3,20,4522,A,65.46134994500675,82.16472095225576,3.2730674972503375,1.29064041863931,A,524.724957998842,Correct,sub_003_day_20_data.csv,1,300,180.0,Training at home,,,,,,,,,,,,,
3,20,4523,A,54.6679702096128,71.41282861056864,2.73339851048064,1.121750088675147,A,623.1114999973215,Correct,sub_003_day_20_data.csv,1,300,180.0,Training at home,,,,,,,,,,,,,
3,20,4524,A,25.327576769212857,55.55248489106002,1.2663788384606427,0.8726163921120607,A,470.46545799821615,Correct,sub_003_day_20_data.csv,1,300,180.0,Training at home,,,,,,,,,,,,,
3,20,4525,A,66.17350093871707,77.5676783660307,3.308675046935854,1.21843024255369,A,964.271542005008,Correct,sub_003_day_20_data.csv,1,300,181.0,Training at home,,,,,,,,,,,,,
3,20,4526,A,47.26995803034244,55.2957375600989,2.3634979015171216,0.8685834144681794,A,2447.807124000974,Correct,sub_003_day_20_data.csv,1,300,181.0,Training at home,,,,,,,,,,,,,
3,20,4527,B,54.0313278281688,30.116296219255336,2.70156639140844,0.4730656747787331,B,826.6366239986382,Correct,sub_003_day_20_data.csv,1,300,181.0,Training at home,,,,,,,,,,,,,
3,20,4528,A,57.325955964987266,67.67853534441933,2.8662977982493634,1.0630919472187246,A,815.7406249956694,Correct,sub_003_day_20_data.csv,1,300,181.0,Training at home,,,,,,,,,,,,,
3,20,4529,A,34.65542563082425,47.68466471834082,1.7327712815412124,0.7490289618401597,A,1201.8642080074642,Correct,sub_003_day_20_data.csv,1,300,181.0,Training at home,,,,,,,,,,,,,
3,20,4530,A,45.16798766202868,70.84302417007044,2.258399383101434,1.1127996214538871,A,1020.0099170033354,Correct,sub_003_day_20_data.csv,1,300,181.0,Training at home,,,,,,,,,,,,,
3,20,4531,A,68.95073280959446,84.86222855792047,3.447536640479723,1.3330127690241045,A,677.0803749968763,Correct,sub_003_day_20_data.csv,1,300,181.0,Training at home,,,,,,,,,,,,,
3,20,4532,A,45.661213581660306,76.33164406898953,2.2830606790830155,1.199014661217842,A,555.909332993906,Correct,sub_003_day_20_data.csv,1,300,181.0,Training at home,,,,,,,,,,,,,
3,20,4533,B,57.36842208638898,37.999100146378474,2.8684211043194487,0.5968884693144272,B,465.3628740052227,Correct,sub_003_day_20_data.csv,1,300,181.0,Training at home,,,,,,,,,,,,,
3,20,4534,B,71.4461482667832,43.85201356172793,3.57230741333916,0.6888258182532222,B,522.407500015106,Correct,sub_003_day_20_data.csv,1,300,181.0,Training at home,,,,,,,,,,,,,
3,20,4535,B,35.59803766236236,21.74909473874603,1.7799018831181177,0.3416339812673648,B,804.7229160147253,Correct,sub_003_day_20_data.csv,1,300,181.0,Training at home,,,,,,,,,,,,,
3,20,4536,B,62.64548122129382,38.54226006144948,3.1322740610646913,0.6054204053089849,B,473.3460830175318,Correct,sub_003_day_20_data.csv,1,300,181.0,Training at home,,,,,,,,,,,,,
3,20,4537,A,22.82376117349127,36.26296396280242,1.1411880586745635,0.5696173059146574,A,508.3789989876095,Correct,sub_003_day_20_data.csv,1,300,181.0,Training at home,,,,,,,,,,,,,
3,20,4538,A,22.387829766488085,42.21709936671739,1.1193914883244045,0.6631446461317484,A,547.4272909923457,Correct,sub_003_day_20_data.csv,1,300,181.0,Training at home,,,,,,,,,,,,,
3,20,4539,A,36.79718945172932,66.08130574926989,1.8398594725864656,1.0380027234076363,A,518.0993329850025,Correct,sub_003_day_20_data.csv,1,300,181.0,Training at home,,,,,,,,,,,,,
3,20,4540,B,45.93541527740386,23.074619333306263,2.2967707638701933,0.3624552729094797,B,479.87579100299627,Correct,sub_003_day_20_data.csv,1,300,181.0,Training at home,,,,,,,,,,,,,
3,20,4541,A,35.01359655153194,43.73442795953999,1.7506798275765971,0.6869787879332144,A,524.572458001785,Correct,sub_003_day_20_data.csv,1,300,181.0,Training at home,,,,,,,,,,,,,
3,20,4542,A,63.86192963453152,76.59179640058916,3.193096481726576,1.2031011244866805,A,647.6027079916093,Correct,sub_003_day_20_data.csv,1,300,181.0,Training at home,,,,,,,,,,,,,
3,20,4543,B,52.43872307035418,40.82527074232525,2.621936153517709,0.6412818532245167,B,701.6205409890972,Correct,sub_003_day_20_data.csv,1,300,181.0,Training at home,,,,,,,,,,,,,
3,20,4544,A,49.47697520976227,76.13866697787427,2.4738487604881136,1.1959833841590477,A,732.323207979789,Correct,sub_003_day_20_data.csv,1,300,181.0,Training at home,,,,,,,,,,,,,
3,20,4545,B,81.28869646462441,60.871311084320624,4.06443482323122,0.9561643185844032,B,519.6630829886999,Correct,sub_003_day_20_data.csv,1,300,181.0,Training at home,,,,,,,,,,,,,
3,20,4546,B,53.84689329286781,42.70710020181031,2.6923446646433904,0.6708415612506522,B,580.4971669858787,Correct,sub_003_day_20_data.csv,1,300,181.0,Training at home,,,,,,,,,,,,,
3,20,4547,B,62.07901919585867,40.04689387485895,3.1039509597929333,0.6290551379817348,B,431.5985410066787,Correct,sub_003_day_20_data.csv,1,300,181.0,Training at home,,,,,,,,,,,,,
3,20,4548,A,37.919160112958096,48.68857072919896,1.8959580056479048,0.7647982805831923,A,562.6952910097316,Correct,sub_003_day_20_data.csv,1,300,181.0,Training at home,,,,,,,,,,,,,
3,20,4549,A,37.00181632486305,55.12784568366397,1.8500908162431529,0.8659461750401527,A,726.0365000111051,Correct,sub_003_day_20_data.csv,1,300,181.0,Training at home,,,,,,,,,,,,,
3,20,4550,B,52.37905312636931,31.736917791755047,2.6189526563184655,0.4985223389108043,B,410.2305420092307,Correct,sub_003_day_20_data.csv,1,300,182.0,Training at home,,,,,,,,,,,,,
3,20,4551,B,81.46209495130695,53.82537981884788,4.073104747565347,0.845487089077864,B,569.8120000015479,Correct,sub_003_day_20_data.csv,1,300,182.0,Training at home,,,,,,,,,,,,,
3,20,4552,A,59.84746085502044,87.05349246773815,2.992373042751022,1.367433062029903,A,1058.007498999359,Correct,sub_003_day_20_data.csv,1,300,182.0,Training at home,,,,,,,,,,,,,
3,20,4553,B,59.2629711063979,49.728204215461275,2.9631485553198953,0.7811288051975306,B,932.4343750195112,Correct,sub_003_day_20_data.csv,1,300,182.0,Training at home,,,,,,,,,,,,,
3,20,4554,B,69.69986004355798,40.65091175803682,3.484993002177899,0.6385430287038771,B,725.4500830022153,Correct,sub_003_day_20_data.csv,1,300,182.0,Training at home,,,,,,,,,,,,,
3,20,4555,B,48.83447011633841,21.20582747910028,2.4417235058169204,0.33310035910817,B,1051.6242499870714,Correct,sub_003_day_20_data.csv,1,300,182.0,Training at home,,,,,,,,,,,,,
3,20,4556,B,70.517411241812,51.03308112358238,3.5258705620906,0.8016257637394918,B,1008.8907909812406,Correct,sub_003_day_20_data.csv,1,300,182.0,Training at home,,,,,,,,,,,,,
3,20,4557,A,29.874392702983094,49.566304873292246,1.4937196351491548,0.7785856962776345,A,870.0093330116943,Correct,sub_003_day_20_data.csv,1,300,182.0,Training at home,,,,,,,,,,,,,
3,20,4558,B,61.4616223373916,50.651888902177646,3.07308111686958,0.7956380103276383,B,906.9134170131292,Correct,sub_003_day_20_data.csv,1,300,182.0,Training at home,,,,,,,,,,,,,
3,20,4559,A,47.588662748891394,74.73439832613174,2.37943313744457,1.173925183759144,A,1078.0909580062144,Correct,sub_003_day_20_data.csv,1,300,182.0,Training at home,,,,,,,,,,,,,
3,20,4560,A,33.10560698262142,42.54767570892978,1.655280349131071,0.6683373271724734,A,2004.4910830038136,Correct,sub_003_day_20_data.csv,1,300,182.0,Training at home,,,,,,,,,,,,,
3,20,4561,B,79.1558516450182,50.67305346978833,3.9577925822509097,0.795970462578249,B,858.436000009533,Correct,sub_003_day_20_data.csv,1,300,182.0,Training at home,,,,,,,,,,,,,
3,20,4562,B,43.728785628502195,27.264059460368426,2.1864392814251095,0.4282628445386436,B,1440.319624991389,Correct,sub_003_day_20_data.csv,1,300,182.0,Training at home,,,,,,,,,,,,,
3,20,4563,B,63.10267060157407,39.522173076912594,3.155133530078704,0.6208128429616645,B,624.7966660012025,Correct,sub_003_day_20_data.csv,1,300,182.0,Training at home,,,,,,,,,,,,,
3,20,4564,B,72.95933429531215,49.35341843943023,3.6479667147656074,0.7752416839942852,B,902.3247080040164,Correct,sub_003_day_20_data.csv,1,300,182.0,Training at home,,,,,,,,,,,,,
3,20,4565,A,43.939685511716725,76.4191418068452,2.1969842755858364,1.2003890724701074,A,1279.9595830147157,Correct,sub_003_day_20_data.csv,1,300,182.0,Training at home,,,,,,,,,,,,,
3,20,4566,B,89.47680786053158,64.43984153218913,4.473840393026579,1.0122186637800792,B,509.872540977085,Correct,sub_003_day_20_data.csv,1,300,182.0,Training at home,,,,,,,,,,,,,
3,20,4567,A,24.580844632795507,44.2902750569196,1.229042231639775,0.6957100137214494,A,475.1257500029169,Correct,sub_003_day_20_data.csv,1,300,182.0,Training at home,,,,,,,,,,,,,
3,20,4568,A,32.12816407945182,53.85399164834907,1.606408203972591,0.8459365226446975,A,634.4948750047479,Correct,sub_003_day_20_data.csv,1,300,182.0,Training at home,,,,,,,,,,,,,
3,20,4569,B,86.266220808368,67.40274769203178,4.313311040418401,1.058759884905267,B,1404.675791010959,Correct,sub_003_day_20_data.csv,1,300,182.0,Training at home,,,,,,,,,,,,,
3,20,4570,A,52.2947181763756,69.97826257865448,2.6147359088187794,1.0992159781403923,A,1257.634333014721,Correct,sub_003_day_20_data.csv,1,300,182.0,Training at home,,,,,,,,,,,,,
3,20,4571,B,72.53775004549409,41.36966926490809,3.626887502274705,0.6498332452203736,B,484.2889170104172,Correct,sub_003_day_20_data.csv,1,300,182.0,Training at home,,,,,,,,,,,,,
3,20,4572,A,47.25350820809646,77.97688999028547,2.3626754104048233,1.2248581237163014,A,1111.9522909866646,Correct,sub_003_day_20_data.csv,1,300,182.0,Training at home,,,,,,,,,,,,,
3,20,4573,A,35.15720502087562,63.6376325937131,1.757860251043781,0.9996175952412772,A,567.4729580059648,Correct,sub_003_day_20_data.csv,1,300,182.0,Training at home,,,,,,,,,,,,,
3,20,4574,A,37.9486993279528,47.14813340525516,1.89743496639764,0.7406011476821056,A,1166.0968330106698,Correct,sub_003_day_20_data.csv,1,300,182.0,Training at home,,,,,,,,,,,,,
3,20,4575,A,14.524627537241043,38.0853813556369,0.7262313768620523,0.5982437713801727,A,481.3932079996448,Correct,sub_003_day_20_data.csv,1,300,183.0,Training at home,,,,,,,,,,,,,
3,20,4576,B,79.31021666214752,64.97224006662,3.965510833107376,1.0205815604028292,B,477.8932080080267,Correct,sub_003_day_20_data.csv,1,300,183.0,Training at home,,,,,,,,,,,,,
3,20,4577,A,54.019185447838375,62.01100310336219,2.700959272391919,0.9740665589562828,A,2980.0509579945356,Correct,sub_003_day_20_data.csv,1,300,183.0,Training at home,,,,,,,,,,,,,
3,20,4578,B,53.45446036846518,34.135037714010615,2.672723018423259,0.5361919185617313,B,607.5726250128355,Correct,sub_003_day_20_data.csv,1,300,183.0,Training at home,,,,,,,,,,,,,
3,20,4579,B,58.01471251580548,42.175804502030175,2.900735625790274,0.6624959879140866,B,447.60620800661854,Correct,sub_003_day_20_data.csv,1,300,183.0,Training at home,,,,,,,,,,,,,
3,20,4580,B,53.048584616809286,42.332036052220424,2.652429230840464,0.6649500673657698,B,1122.7323329949286,Correct,sub_003_day_20_data.csv,1,300,183.0,Training at home,,,,,,,,,,,,,
3,20,4581,B,84.87088239967508,62.97022590064664,4.2435441199837545,0.989133995421806,B,450.52045802003704,Correct,sub_003_day_20_data.csv,1,300,183.0,Training at home,,,,,,,,,,,,,
3,20,4582,B,79.41991462580275,58.207434576039255,3.970995731290137,0.9143202442419672,B,722.9665830091108,Correct,sub_003_day_20_data.csv,1,300,183.0,Training at home,,,,,,,,,,,,,
3,20,4583,A,36.03844889149186,56.114176795239615,1.8019224445745932,0.8814394279108181,A,2112.880666012643,Correct,sub_003_day_20_data.csv,1,300,183.0,Training at home,,,,,,,,,,,,,
3,20,4584,A,16.897693669819002,47.121625389693875,0.8448846834909501,0.7401847607473627,A,495.31574998400174,Correct,sub_003_day_20_data.csv,1,300,183.0,Training at home,,,,,,,,,,,,,
3,20,4585,A,41.48980115746605,53.69485272419126,2.0744900578733025,0.8434367742695258,A,618.5401249967981,Correct,sub_003_day_20_data.csv,1,300,183.0,Training at home,,,,,,,,,,,,,
3,20,4586,A,60.37111176825608,71.50609247704978,3.018555588412804,1.1232150740640598,A,950.7663330005016,Correct,sub_003_day_20_data.csv,1,300,183.0,Training at home,,,,,,,,,,,,,
3,20,4587,B,62.516333981808025,49.40743333302997,3.125816699090401,0.776090147958872,B,621.32258299971,Correct,sub_003_day_20_data.csv,1,300,183.0,Training at home,,,,,,,,,,,,,
3,20,4588,B,48.410735441893145,36.52918335000289,2.4205367720946573,0.5737990702700184,B,1385.7544579950627,Correct,sub_003_day_20_data.csv,1,300,183.0,Training at home,,,,,,,,,,,,,
3,20,4589,B,66.69685826519444,56.53410035927618,3.334842913259722,0.8880355718300507,B,484.61158300051466,Correct,sub_003_day_20_data.csv,1,300,183.0,Training at home,,,,,,,,,,,,,
3,20,4590,B,50.33262243210625,21.745925720794137,2.5166311216053123,0.3415842024497809,B,669.2097909981385,Correct,sub_003_day_20_data.csv,1,300,183.0,Training at home,,,,,,,,,,,,,
3,20,4591,B,77.83497779650133,63.16324234577222,3.8917488898250663,0.9921658906519488,B,473.3790000027511,Correct,sub_003_day_20_data.csv,1,300,183.0,Training at home,,,,,,,,,,,,,
3,20,4592,B,68.65154420564554,35.91086211143348,3.432577210282277,0.5640865029667773,B,590.0409579917323,Correct,sub_003_day_20_data.csv,1,300,183.0,Training at home,,,,,,,,,,,,,
3,20,4593,B,44.79002124015169,16.533798744439444,2.2395010620075846,0.2597123033573155,B,1424.108873994555,Correct,sub_003_day_20_data.csv,1,300,183.0,Training at home,,,,,,,,,,,,,
3,20,4594,A,25.18053519880342,48.81479368367045,1.259026759940171,0.7667809861156027,A,1316.874457988888,Correct,sub_003_day_20_data.csv,1,300,183.0,Training at home,,,,,,,,,,,,,
3,20,4595,A,27.139554219100987,45.302189191666606,1.3569777109550494,0.7116051237803738,A,1696.0896250093356,Correct,sub_003_day_20_data.csv,1,300,183.0,Training at home,,,,,,,,,,,,,
3,20,4596,B,64.9051479298569,36.9118808040526,3.2452573964928444,0.5798104678209687,B,785.3936239844188,Correct,sub_003_day_20_data.csv,1,300,183.0,Training at home,,,,,,,,,,,,,
3,20,4597,A,22.79764447814692,48.580430142100795,1.139882223907346,0.7630996122132799,A,1024.7516249946784,Correct,sub_003_day_20_data.csv,1,300,183.0,Training at home,,,,,,,,,,,,,
3,20,4598,B,84.03767665541469,62.35221744053382,4.201883832770734,0.979426341231072,B,1470.2932919899467,Correct,sub_003_day_20_data.csv,1,300,183.0,Training at home,,,,,,,,,,,,,
3,20,4599,A,50.365326387611944,78.83037853026524,2.518266319380597,1.238264690351919,A,1225.5134989973158,Correct,sub_003_day_20_data.csv,1,300,183.0,Training at home,,,,,,,,,,,,,
3,20,4600,A,45.460030150112246,71.59957382927072,2.273001507505612,1.1246834757109845,A,851.6254580172244,Correct,sub_003_day_20_data.csv,1,300,184.0,Training at home,,,,,,,,,,,,,
3,20,4601,A,61.87348345128109,82.72417885224698,3.093674172564054,1.2994283627823362,A,1073.0859159957618,Correct,sub_003_day_20_data.csv,1,300,184.0,Training at home,,,,,,,,,,,,,
3,20,4602,A,34.60730878097637,62.11543101795324,1.7303654390488186,0.9757069088028274,A,885.646375012584,Correct,sub_003_day_20_data.csv,1,300,184.0,Training at home,,,,,,,,,,,,,
3,20,4603,A,24.15905816290982,47.26536607144468,1.207952908145491,0.7424426340964143,A,756.5870829857886,Correct,sub_003_day_20_data.csv,1,300,184.0,Training at home,,,,,,,,,,,,,
3,20,4604,B,43.328736974600744,23.97429958252278,2.1664368487300374,0.3765874172170721,B,648.8454159989487,Correct,sub_003_day_20_data.csv,1,300,184.0,Training at home,,,,,,,,,,,,,
3,20,4605,B,38.5485168315735,29.488909343946105,1.927425841578675,0.4632107047865824,B,1252.4812500050757,Correct,sub_003_day_20_data.csv,1,300,184.0,Training at home,,,,,,,,,,,,,
3,20,4606,B,47.13111847518145,17.477330275374086,2.3565559237590725,0.2745332619873885,B,1100.100207986543,Correct,sub_003_day_20_data.csv,1,300,184.0,Training at home,,,,,,,,,,,,,
3,20,4607,A,16.003758414070198,36.0111373429346,0.80018792070351,0.5656616226198821,A,719.8450410214718,Correct,sub_003_day_20_data.csv,1,300,184.0,Training at home,,,,,,,,,,,,,
3,20,4608,A,10.749837239541115,32.420522227580406,0.5374918619770558,0.509260372278556,A,617.7220829995349,Correct,sub_003_day_20_data.csv,1,300,184.0,Training at home,,,,,,,,,,,,,
3,20,4609,A,58.32781377854549,73.58949410025208,2.916390688927274,1.1559410702337063,A,494.6816250158008,Correct,sub_003_day_20_data.csv,1,300,184.0,Training at home,,,,,,,,,,,,,
3,20,4610,A,36.858698176925,45.27380048259353,1.84293490884625,0.7111591949810293,A,1232.4820409994572,Correct,sub_003_day_20_data.csv,1,300,184.0,Training at home,,,,,,,,,,,,,
3,20,4611,A,39.23143208351159,50.42108181153915,1.9615716041755795,0.7920125010259066,B,672.5194159953389,Incorrect,sub_003_day_20_data.csv,0,300,184.0,Training at home,,,,,,,,,,,,,
3,20,4612,A,54.25484133353246,79.22879407793884,2.7127420666766233,1.244522987140156,A,690.2504580211826,Correct,sub_003_day_20_data.csv,1,300,184.0,Training at home,,,,,,,,,,,,,
3,20,4613,B,48.97575475743248,37.9571440858195,2.448787737871624,0.596229425056299,B,510.7481660088524,Correct,sub_003_day_20_data.csv,1,300,184.0,Training at home,,,,,,,,,,,,,
3,20,4614,B,63.57846075709893,35.298851827663555,3.178923037854947,0.5544730679097124,B,559.8324160091579,Correct,sub_003_day_20_data.csv,1,300,184.0,Training at home,,,,,,,,,,,,,
3,20,4615,A,38.88212467295451,55.76152876077762,1.9441062336477255,0.8759000455389747,A,557.6683330000378,Correct,sub_003_day_20_data.csv,1,300,184.0,Training at home,,,,,,,,,,,,,
3,20,4616,B,79.54097054213804,52.260250693332,3.977048527106902,0.8209020982646635,B,664.9334160028957,Correct,sub_003_day_20_data.csv,1,300,184.0,Training at home,,,,,,,,,,,,,
3,20,4617,A,22.42888746927611,40.217092480744256,1.121444373463805,0.6317286114312373,A,641.5527079952881,Correct,sub_003_day_20_data.csv,1,300,184.0,Training at home,,,,,,,,,,,,,
3,20,4618,A,29.827664550568414,54.23326451789582,1.491383227528421,0.8518941269480674,A,810.559748992091,Correct,sub_003_day_20_data.csv,1,300,184.0,Training at home,,,,,,,,,,,,,
3,20,4619,B,48.25004158752133,34.9681599193015,2.4125020793760665,0.5492785715601533,B,568.8013329927344,Correct,sub_003_day_20_data.csv,1,300,184.0,Training at home,,,,,,,,,,,,,
3,20,4620,A,36.25243025758435,54.99618132883862,1.8126215128792176,0.8638779961908578,A,594.5777500164695,Correct,sub_003_day_20_data.csv,1,300,184.0,Training at home,,,,,,,,,,,,,
3,20,4621,A,24.17239568721681,42.340271280876706,1.2086197843608404,0.6650794260350058,A,651.815124991117,Correct,sub_003_day_20_data.csv,1,300,184.0,Training at home,,,,,,,,,,,,,
3,20,4622,A,20.23461037326631,48.51032080760952,1.0117305186633154,0.7619983373623509,A,1607.5631669955328,Correct,sub_003_day_20_data.csv,1,300,184.0,Training at home,,,,,,,,,,,,,
3,20,4623,A,59.17145309453876,72.28508366752061,2.958572654726938,1.1354514390700314,A,3223.645457997918,Correct,sub_003_day_20_data.csv,1,300,184.0,Training at home,,,,,,,,,,,,,
3,20,4624,A,39.00828818137432,57.14805954688917,1.950414409068716,0.8976796201970952,A,1075.0129990046844,Correct,sub_003_day_20_data.csv,1,300,184.0,Training at home,,,,,,,,,,,,,
3,20,4625,A,61.394069797867154,77.88012793582088,3.069703489893358,1.2233381889190404,A,555.3165829915088,Correct,sub_003_day_20_data.csv,1,300,185.0,Training at home,,,,,,,,,,,,,
3,20,4626,B,59.757941942557856,28.93040135390472,2.9878970971278926,0.4544376817941564,B,558.6496659961995,Correct,sub_003_day_20_data.csv,1,300,185.0,Training at home,,,,,,,,,,,,,
3,20,4627,A,49.966798197122856,71.36195187044831,2.4983399098561425,1.120950918710144,A,955.0630410085432,Correct,sub_003_day_20_data.csv,1,300,185.0,Training at home,,,,,,,,,,,,,
3,20,4628,A,47.19152000453573,72.73604156107598,2.3595760002267867,1.1425350690973908,A,1162.6327499980107,Correct,sub_003_day_20_data.csv,1,300,185.0,Training at home,,,,,,,,,,,,,
3,20,4629,A,33.13881942444283,61.830162584853184,1.6569409712221417,0.9712259227341864,A,1170.8721659961157,Correct,sub_003_day_20_data.csv,1,300,185.0,Training at home,,,,,,,,,,,,,
3,20,4630,B,51.39108911976652,25.287936427464217,2.5695544559883263,0.3972219765248365,B,574.379208002938,Correct,sub_003_day_20_data.csv,1,300,185.0,Training at home,,,,,,,,,,,,,
3,20,4631,A,47.419361383064185,60.18586698291754,2.3709680691532093,0.9453973878173312,A,990.3766659845132,Correct,sub_003_day_20_data.csv,1,300,185.0,Training at home,,,,,,,,,,,,,
3,20,4632,B,55.17012243549557,46.0896034057863,2.7585061217747784,0.7239737973324267,B,802.9957489925437,Correct,sub_003_day_20_data.csv,1,300,185.0,Training at home,,,,,,,,,,,,,
3,20,4633,A,27.51902566637144,55.96217220605797,1.375951283318572,0.8790517454073931,A,1628.0294159951154,Correct,sub_003_day_20_data.csv,1,300,185.0,Training at home,,,,,,,,,,,,,
3,20,4634,B,75.10360656989835,58.81066120639965,3.7551803284949177,0.9237957059939168,B,448.09199997689575,Correct,sub_003_day_20_data.csv,1,300,185.0,Training at home,,,,,,,,,,,,,
3,20,4635,A,44.954850075136065,60.65856437453353,2.247742503756803,0.9528225010816904,A,1456.0646250029097,Correct,sub_003_day_20_data.csv,1,300,185.0,Training at home,,,,,,,,,,,,,
3,20,4636,B,72.37275427471626,44.77442141892921,3.618637713735813,0.7033149669922073,B,521.1445410095621,Correct,sub_003_day_20_data.csv,1,300,185.0,Training at home,,,,,,,,,,,,,
3,20,4637,B,54.52273134420974,27.30936518165516,2.726136567210487,0.4289745051444437,B,483.2700830011163,Correct,sub_003_day_20_data.csv,1,300,185.0,Training at home,,,,,,,,,,,,,
3,20,4638,A,39.182617906387385,57.907082060788106,1.9591308953193691,0.9096023179649662,A,654.2740410077386,Correct,sub_003_day_20_data.csv,1,300,185.0,Training at home,,,,,,,,,,,,,
3,20,4639,A,60.5069982854864,84.97931210893167,3.0253499142743197,1.3348519131426693,A,627.8858749719802,Correct,sub_003_day_20_data.csv,1,300,185.0,Training at home,,,,,,,,,,,,,
3,20,4640,A,27.91831033812591,42.26764939761093,1.3959155169062956,0.6639386841602177,A,589.7255830059294,Correct,sub_003_day_20_data.csv,1,300,185.0,Training at home,,,,,,,,,,,,,
3,20,4641,B,57.80196054396577,27.74844517029199,2.890098027198288,0.4358715574776425,B,582.7562499907799,Correct,sub_003_day_20_data.csv,1,300,185.0,Training at home,,,,,,,,,,,,,
3,20,4642,B,48.35950064532027,20.347547451159997,2.4179750322660136,0.3196185279556698,B,646.5184580010828,Correct,sub_003_day_20_data.csv,1,300,185.0,Training at home,,,,,,,,,,,,,
3,20,4643,B,44.03062529274878,14.976765961496284,2.2015312646374388,0.235254489595852,B,813.8592079922091,Correct,sub_003_day_20_data.csv,1,300,185.0,Training at home,,,,,,,,,,,,,
3,20,4644,B,75.52358875846569,61.14158378595537,3.776179437923284,0.960409752254011,B,1152.7224580058828,Correct,sub_003_day_20_data.csv,1,300,185.0,Training at home,,,,,,,,,,,,,
3,20,4645,B,81.92955629616151,61.43382040908848,4.096477814808075,0.9650001943957354,B,633.5621670004912,Correct,sub_003_day_20_data.csv,1,300,185.0,Training at home,,,,,,,,,,,,,
3,20,4646,B,88.67060895713904,64.02007518389118,4.433530447856952,1.005624989399894,B,505.1581659936346,Correct,sub_003_day_20_data.csv,1,300,185.0,Training at home,,,,,,,,,,,,,
3,20,4647,B,74.72718791633802,61.90794396531067,3.736359395816901,0.9724477098013428,B,1011.914832983166,Correct,sub_003_day_20_data.csv,1,300,185.0,Training at home,,,,,,,,,,,,,
3,20,4648,B,75.4486360495709,42.97945941879923,3.7724318024785446,0.6751197698268016,B,763.110041996697,Correct,sub_003_day_20_data.csv,1,300,185.0,Training at home,,,,,,,,,,,,,
3,20,4649,A,58.03418714936117,71.29020658569033,2.9017093574680586,1.119823946412517,A,790.8625830023084,Correct,sub_003_day_20_data.csv,1,300,185.0,Training at home,,,,,,,,,,,,,
3,20,4650,A,30.957425045517414,57.847043373785255,1.547871252275871,0.9086592324748692,A,496.1117079947144,Correct,sub_003_day_20_data.csv,1,300,186.0,Training at home,,,,,,,,,,,,,
3,20,4651,A,31.975893095947825,50.39007346590932,1.598794654797391,0.7915254230717533,A,509.4707910029683,Correct,sub_003_day_20_data.csv,1,300,186.0,Training at home,,,,,,,,,,,,,
3,20,4652,A,48.56229771798678,60.0471526417428,2.428114885899339,0.9432184680414204,A,509.2747910239268,Correct,sub_003_day_20_data.csv,1,300,186.0,Training at home,,,,,,,,,,,,,
3,20,4653,B,39.64272098804142,21.699635340733195,1.982136049402071,0.3408570748601243,B,450.460499007022,Correct,sub_003_day_20_data.csv,1,300,186.0,Training at home,,,,,,,,,,,,,
3,20,4654,B,47.8715726766717,22.971459534961586,2.393578633833585,0.3608348425863526,B,787.8680000139866,Correct,sub_003_day_20_data.csv,1,300,186.0,Training at home,,,,,,,,,,,,,
3,20,4655,B,83.6465434454467,65.35034914437682,4.182327172272335,1.0265208839075113,B,1059.4085410120897,Correct,sub_003_day_20_data.csv,1,300,186.0,Training at home,,,,,,,,,,,,,
3,20,4656,B,60.84636448754191,53.58809078115202,3.042318224377096,0.8417597615898504,B,550.7874159957282,Correct,sub_003_day_20_data.csv,1,300,186.0,Training at home,,,,,,,,,,,,,
3,20,4657,A,44.58201028571577,71.95857990598114,2.2291005142857885,1.1303227299769223,A,521.3156660029199,Correct,sub_003_day_20_data.csv,1,300,186.0,Training at home,,,,,,,,,,,,,
3,20,4658,A,22.07741578528944,34.282834309753,1.103870789264472,0.5385135020587807,A,545.2809580019675,Correct,sub_003_day_20_data.csv,1,300,186.0,Training at home,,,,,,,,,,,,,
3,20,4659,B,66.33071085301319,46.41883105985103,3.3165355426506595,0.7291452932292686,B,411.4081250154413,Correct,sub_003_day_20_data.csv,1,300,186.0,Training at home,,,,,,,,,,,,,
3,20,4660,A,42.16722785417032,66.55247291166847,2.1083613927085163,1.045403799887657,A,786.0174579836894,Correct,sub_003_day_20_data.csv,1,300,186.0,Training at home,,,,,,,,,,,,,
3,20,4661,A,55.91710474207371,79.37767253779224,2.7958552371036856,1.2468615645189218,A,944.3679579999298,Correct,sub_003_day_20_data.csv,1,300,186.0,Training at home,,,,,,,,,,,,,
3,20,4662,A,47.23928368081128,64.54188918312181,2.3619641840405636,1.01382162453251,A,856.4179579843767,Correct,sub_003_day_20_data.csv,1,300,186.0,Training at home,,,,,,,,,,,,,
3,20,4663,B,47.574951190628134,35.68461987838252,2.3787475595314067,0.560532698280354,B,680.1260830252431,Correct,sub_003_day_20_data.csv,1,300,186.0,Training at home,,,,,,,,,,,,,
3,20,4664,A,47.57303585842458,69.54615372287223,2.378651792921229,1.092428428106009,A,789.7354580054525,Correct,sub_003_day_20_data.csv,1,300,186.0,Training at home,,,,,,,,,,,,,
3,20,4665,A,49.31073206102851,64.34429558328213,2.4655366030514254,1.0107178315242464,A,1054.7408740094395,Correct,sub_003_day_20_data.csv,1,300,186.0,Training at home,,,,,,,,,,,,,
3,20,4666,A,64.58554121991425,82.72352346436661,3.2292770609957127,1.299418067973585,A,868.7474579783157,Correct,sub_003_day_20_data.csv,1,300,186.0,Training at home,,,,,,,,,,,,,
3,20,4667,B,56.285795747607466,42.30501341626495,2.8142897873803734,0.664525596792778,B,1247.4207500054035,Correct,sub_003_day_20_data.csv,1,300,186.0,Training at home,,,,,,,,,,,,,
3,20,4668,A,60.05921516930621,76.82443944668461,3.0029607584653104,1.2067554729092913,A,923.011790990131,Correct,sub_003_day_20_data.csv,1,300,186.0,Training at home,,,,,,,,,,,,,
3,20,4669,B,72.76643917459843,46.71198496115855,3.6383219587299216,0.7337501439428629,B,428.1303750176448,Correct,sub_003_day_20_data.csv,1,300,186.0,Training at home,,,,,,,,,,,,,
3,20,4670,B,71.55538217001441,47.39349518917846,3.5777691085007204,0.7444552815713311,B,463.5752500034869,Correct,sub_003_day_20_data.csv,1,300,186.0,Training at home,,,,,,,,,,,,,
3,20,4671,B,54.451652041647456,28.05875004331357,2.722582602082373,0.4407458150249309,B,460.46037500491366,Correct,sub_003_day_20_data.csv,1,300,186.0,Training at home,,,,,,,,,,,,,
3,20,4672,A,22.82701397457372,47.28141138867518,1.141350698728686,0.7426946733500938,A,605.2697080012877,Correct,sub_003_day_20_data.csv,1,300,186.0,Training at home,,,,,,,,,,,,,
3,20,4673,A,31.33827550217836,40.58988802332077,1.5669137751089182,0.6375844701204842,A,1387.139498983743,Correct,sub_003_day_20_data.csv,1,300,186.0,Training at home,,,,,,,,,,,,,
3,20,4674,B,54.912167855941064,46.31632141691029,2.745608392797053,0.7275350755233447,B,402.12233300553635,Correct,sub_003_day_20_data.csv,1,300,186.0,Training at home,,,,,,,,,,,,,
3,20,4675,B,32.72478282982949,15.025607757635136,1.6362391414914748,0.2360216947355417,B,683.9787079952657,Correct,sub_003_day_20_data.csv,1,300,187.0,Training at home,,,,,,,,,,,,,
3,20,4676,A,24.7123587377722,37.65546175844459,1.23561793688861,0.5914906101393046,A,1396.6504999843892,Correct,sub_003_day_20_data.csv,1,300,187.0,Training at home,,,,,,,,,,,,,
3,20,4677,B,80.94975106009782,63.45569209721412,4.047487553004891,0.9967596806053188,B,903.7445409921928,Correct,sub_003_day_20_data.csv,1,300,187.0,Training at home,,,,,,,,,,,,,
3,20,4678,B,66.3584990410371,54.1539184554957,3.3179249520518557,0.8506477619144299,B,829.3222499778494,Correct,sub_003_day_20_data.csv,1,300,187.0,Training at home,,,,,,,,,,,,,
3,20,4679,A,39.97658900539742,65.45759011299849,1.998829450269871,1.0282054211034397,A,722.7776250219904,Correct,sub_003_day_20_data.csv,1,300,187.0,Training at home,,,,,,,,,,,,,
3,20,4680,B,39.973736216679605,19.389952968602632,1.9986868108339804,0.3045766689980681,B,403.5653330211062,Correct,sub_003_day_20_data.csv,1,300,187.0,Training at home,,,,,,,,,,,,,
3,20,4681,A,41.42692520053282,66.280413310663,2.0713462600266412,1.04113029766837,A,768.6028749740217,Correct,sub_003_day_20_data.csv,1,300,187.0,Training at home,,,,,,,,,,,,,
3,20,4682,B,56.52294203133429,48.20569679851275,2.8261471015667143,0.7572133146169233,B,576.143749000039,Correct,sub_003_day_20_data.csv,1,300,187.0,Training at home,,,,,,,,,,,,,
3,20,4683,B,57.976244904922225,46.50182196838677,2.8988122452461114,0.7304489113721216,B,626.2806250015274,Correct,sub_003_day_20_data.csv,1,300,187.0,Training at home,,,,,,,,,,,,,
3,20,4684,A,45.691997052264995,57.97790798172892,2.2845998526132494,0.910714848929523,A,1926.3542910048272,Correct,sub_003_day_20_data.csv,1,300,187.0,Training at home,,,,,,,,,,,,,
3,20,4685,B,89.6085863115343,68.6981561492172,4.480429315576715,1.079108113367726,B,482.4917910154909,Correct,sub_003_day_20_data.csv,1,300,187.0,Training at home,,,,,,,,,,,,,
3,20,4686,A,48.20219239692706,62.94601781486929,2.4101096198463527,0.988753735699628,A,751.7261669854634,Correct,sub_003_day_20_data.csv,1,300,187.0,Training at home,,,,,,,,,,,,,
3,20,4687,A,23.303790925661943,47.33243594957038,1.1651895462830972,0.7434961652783986,A,647.3924579913728,Correct,sub_003_day_20_data.csv,1,300,187.0,Training at home,,,,,,,,,,,,,
3,20,4688,B,33.219055138630964,20.484490215670213,1.660952756931548,0.3217696198704077,B,736.5210409916472,Correct,sub_003_day_20_data.csv,1,300,187.0,Training at home,,,,,,,,,,,,,
3,20,4689,B,57.23581332708772,49.23595141755262,2.861790666354386,0.7733965163294363,B,494.25537398201413,Correct,sub_003_day_20_data.csv,1,300,187.0,Training at home,,,,,,,,,,,,,
3,20,4690,A,60.698967106812475,81.73293187678642,3.0349483553406236,1.2838578917023362,A,1222.428416978801,Correct,sub_003_day_20_data.csv,1,300,187.0,Training at home,,,,,,,,,,,,,
3,20,4691,A,39.971281132216475,55.01115224456532,1.9985640566108236,0.8641131587851802,A,1568.002499989234,Correct,sub_003_day_20_data.csv,1,300,187.0,Training at home,,,,,,,,,,,,,
3,20,4692,A,60.856780431088815,70.12347738930308,3.0428390215544407,1.1014970070520225,A,2406.7638739943504,Correct,sub_003_day_20_data.csv,1,300,187.0,Training at home,,,,,,,,,,,,,
3,20,4693,A,60.117586072545656,69.60593907919579,3.005879303627283,1.093367534287101,B,462.3757910158019,Incorrect,sub_003_day_20_data.csv,0,300,187.0,Training at home,,,,,,,,,,,,,
3,20,4694,B,81.10073457178912,58.96741458713297,4.055036728589456,0.9262579823406027,B,510.2272910007742,Correct,sub_003_day_20_data.csv,1,300,187.0,Training at home,,,,,,,,,,,,,
3,20,4695,A,39.827382893655205,64.61343099717863,1.99136914468276,1.0149454007198369,A,1343.7492499942891,Correct,sub_003_day_20_data.csv,1,300,187.0,Training at home,,,,,,,,,,,,,
3,20,4696,B,58.39401243641255,29.104909105544007,2.9197006218206276,0.4571788431468787,B,518.0382500111591,Correct,sub_003_day_20_data.csv,1,300,187.0,Training at home,,,,,,,,,,,,,
3,20,4697,B,46.050376265098755,35.410532686142105,2.3025188132549377,0.5562273467324265,B,876.6489999834448,Correct,sub_003_day_20_data.csv,1,300,187.0,Training at home,,,,,,,,,,,,,
3,20,4698,B,78.5062594325424,48.27515648141381,3.92531297162712,0.7583043847645364,B,733.6912080063485,Correct,sub_003_day_20_data.csv,1,300,187.0,Training at home,,,,,,,,,,,,,
3,20,4699,B,66.26244356896714,37.52994646364684,3.313122178448357,0.5895190204990557,B,499.0862080012448,Correct,sub_003_day_20_data.csv,1,300,187.0,Training at home,,,,,,,,,,,,,
3,20,4700,B,48.052770144593424,31.29720449588716,2.402638507229671,0.4916153386108827,B,959.1613749798852,Correct,sub_003_day_20_data.csv,1,300,188.0,Training at home,,,,,,,,,,,,,
3,20,4701,B,57.12008605933294,38.227310308069065,2.856004302966647,0.6004731861516357,B,670.5334169964772,Correct,sub_003_day_20_data.csv,1,300,188.0,Training at home,,,,,,,,,,,,,
3,20,4702,A,25.157108129478345,44.0102037944226,1.2578554064739174,0.6913106646177384,A,1257.920790987555,Correct,sub_003_day_20_data.csv,1,300,188.0,Training at home,,,,,,,,,,,,,
3,20,4703,B,79.51721699604241,51.37495596545848,3.97586084980212,0.8069959211979172,B,451.2896250234917,Correct,sub_003_day_20_data.csv,1,300,188.0,Training at home,,,,,,,,,,,,,
3,20,4704,A,30.009279448008822,46.30189338556707,1.5004639724004412,0.7273084405369767,A,1551.0607500036713,Correct,sub_003_day_20_data.csv,1,300,188.0,Training at home,,,,,,,,,,,,,
3,20,4705,B,41.464723768812334,27.13520663877489,2.073236188440617,0.4262388291500808,B,1369.8312909982633,Correct,sub_003_day_20_data.csv,1,300,188.0,Training at home,,,,,,,,,,,,,
3,20,4706,A,29.373210448134984,57.52547722522301,1.4686605224067493,0.9036080832250376,A,984.2818330216688,Correct,sub_003_day_20_data.csv,1,300,188.0,Training at home,,,,,,,,,,,,,
3,20,4707,B,52.946886094638614,21.491810106036507,2.6473443047319307,0.3375925637073558,B,594.6895829983987,Correct,sub_003_day_20_data.csv,1,300,188.0,Training at home,,,,,,,,,,,,,
3,20,4708,B,50.728187668494215,27.009235060611008,2.536409383424711,0.4242600722274771,B,652.26345800329,Correct,sub_003_day_20_data.csv,1,300,188.0,Training at home,,,,,,,,,,,,,
3,20,4709,B,79.89520381319667,54.15473582934467,3.9947601906598336,0.8506606011928258,B,479.0618330007419,Correct,sub_003_day_20_data.csv,1,300,188.0,Training at home,,,,,,,,,,,,,
3,20,4710,B,42.54104786922882,18.872275314231477,2.1270523934614407,0.296445007418568,B,462.7064169908408,Correct,sub_003_day_20_data.csv,1,300,188.0,Training at home,,,,,,,,,,,,,
3,20,4711,B,36.18254071173327,26.443514430950156,1.8091270355866635,0.4153737533568434,B,1116.460332996212,Correct,sub_003_day_20_data.csv,1,300,188.0,Training at home,,,,,,,,,,,,,
3,20,4712,A,33.76556931062952,42.60610238340835,1.6882784655314762,0.6692550912290512,B,1793.030124012148,Incorrect,sub_003_day_20_data.csv,0,300,188.0,Training at home,,,,,,,,,,,,,
3,20,4713,B,65.93085299619386,45.53803958232463,3.296542649809693,0.7153098530535612,B,499.5067080017179,Correct,sub_003_day_20_data.csv,1,300,188.0,Training at home,,,,,,,,,,,,,
3,20,4714,B,85.8413344448777,57.73231565331285,4.292066722243885,0.9068570936558732,B,406.32529198774137,Correct,sub_003_day_20_data.csv,1,300,188.0,Training at home,,,,,,,,,,,,,
3,20,4715,A,65.94107573396968,81.77789241270995,3.297053786698484,1.2845641301491302,A,520.5407080065925,Correct,sub_003_day_20_data.csv,1,300,188.0,Training at home,,,,,,,,,,,,,
3,20,4716,A,43.46106009693238,57.72927538447868,2.173053004846619,0.9068093372247014,A,597.0823329989798,Correct,sub_003_day_20_data.csv,1,300,188.0,Training at home,,,,,,,,,,,,,
3,20,4717,B,54.078146899651216,35.5164788808017,2.7039073449825604,0.5578915456665183,B,484.3322079977952,Correct,sub_003_day_20_data.csv,1,300,188.0,Training at home,,,,,,,,,,,,,
3,20,4718,A,26.053261915037417,40.66106119374641,1.3026630957518708,0.6387024556671939,A,972.9967080056668,Correct,sub_003_day_20_data.csv,1,300,188.0,Training at home,,,,,,,,,,,,,
3,20,4719,A,24.851652696813694,51.170779160457734,1.2425826348406843,0.8037887194447985,A,863.0016240058467,Correct,sub_003_day_20_data.csv,1,300,188.0,Training at home,,,,,,,,,,,,,
3,20,4720,B,74.82708178260145,43.92804256751338,3.741354089130073,0.6900200790833987,B,606.3104579807259,Correct,sub_003_day_20_data.csv,1,300,188.0,Training at home,,,,,,,,,,,,,
3,20,4721,B,80.17627311486164,55.24200785727312,4.008813655743082,0.8677394302697944,B,578.6879159859382,Correct,sub_003_day_20_data.csv,1,300,188.0,Training at home,,,,,,,,,,,,,
3,20,4722,A,42.45622868454462,53.51393408035532,2.122811434227231,0.8405949108576637,A,914.418583008228,Correct,sub_003_day_20_data.csv,1,300,188.0,Training at home,,,,,,,,,,,,,
3,20,4723,B,31.43007112563351,15.34549569713101,1.5715035562816757,0.2410464827390028,B,411.0044169938192,Correct,sub_003_day_20_data.csv,1,300,188.0,Training at home,,,,,,,,,,,,,
3,20,4724,A,32.55048811365289,58.57480613010301,1.6275244056826443,0.92009090311889,A,484.2650000064168,Correct,sub_003_day_20_data.csv,1,300,188.0,Training at home,,,,,,,,,,,,,
3,20,4725,B,67.71319581827346,56.223194427075576,3.3856597909136728,0.8831518728672562,B,670.2016239869408,Correct,sub_003_day_20_data.csv,1,300,189.0,Training at home,,,,,,,,,,,,,
3,20,4726,A,31.839007905651187,57.91696233947827,1.591950395282559,0.9097575170197084,A,558.9217490050942,Correct,sub_003_day_20_data.csv,1,300,189.0,Training at home,,,,,,,,,,,,,
3,20,4727,B,68.05389583203947,42.252894737704715,3.4026947916019736,0.6637069185043798,B,370.7199579803273,Correct,sub_003_day_20_data.csv,1,300,189.0,Training at home,,,,,,,,,,,,,
3,20,4728,A,35.60961660962304,44.61928703030972,1.780480830481152,0.7008781217141768,A,639.8580410168506,Correct,sub_003_day_20_data.csv,1,300,189.0,Training at home,,,,,,,,,,,,,
3,20,4729,B,73.8760990728656,61.05947127417171,3.69380495364328,0.9591199319350744,B,612.3227909847628,Correct,sub_003_day_20_data.csv,1,300,189.0,Training at home,,,,,,,,,,,,,
3,20,4730,A,33.00781152013829,59.14718241001127,1.6503905760069144,0.9290817686991342,A,583.3416249952279,Correct,sub_003_day_20_data.csv,1,300,189.0,Training at home,,,,,,,,,,,,,
3,20,4731,B,56.94690533845384,42.19766605788729,2.8473452669226917,0.6628393884304704,B,581.16445800988,Correct,sub_003_day_20_data.csv,1,300,189.0,Training at home,,,,,,,,,,,,,
3,20,4732,A,64.18382709709562,88.27137382507243,3.209191354854781,1.3865634976556296,A,790.8712490170728,Correct,sub_003_day_20_data.csv,1,300,189.0,Training at home,,,,,,,,,,,,,
3,20,4733,B,38.46216531282971,20.469513178166785,1.9231082656414855,0.3215343611154411,B,1301.9834989972878,Correct,sub_003_day_20_data.csv,1,300,189.0,Training at home,,,,,,,,,,,,,
3,20,4734,B,60.64130529541325,29.75335465413265,3.0320652647706625,0.4673646020053741,B,929.7644159814809,Correct,sub_003_day_20_data.csv,1,300,189.0,Training at home,,,,,,,,,,,,,
3,20,4735,B,54.66750560985508,29.28058585550017,2.7333752804927536,0.4599383670822227,B,583.5779159970116,Correct,sub_003_day_20_data.csv,1,300,189.0,Training at home,,,,,,,,,,,,,
3,20,4736,B,40.09794806312732,27.424968947295277,2.0048974031563658,0.4307904048487552,B,556.3770410080906,Correct,sub_003_day_20_data.csv,1,300,189.0,Training at home,,,,,,,,,,,,,
3,20,4737,A,46.81323490819188,57.93363243374002,2.340661745409594,0.910019370248045,A,978.7299580057152,Correct,sub_003_day_20_data.csv,1,300,189.0,Training at home,,,,,,,,,,,,,
3,20,4738,A,26.114420064158015,47.60893902677599,1.3057210032079007,0.7478394654586192,A,1042.8389169974253,Correct,sub_003_day_20_data.csv,1,300,189.0,Training at home,,,,,,,,,,,,,
3,20,4739,A,46.61684660362978,68.67602263546668,2.330842330181489,1.0787604409467424,A,989.1205829917452,Correct,sub_003_day_20_data.csv,1,300,189.0,Training at home,,,,,,,,,,,,,
3,20,4740,A,38.65266642242559,52.18133940691585,1.9326333211212796,0.8196625626762122,A,898.1702080054674,Correct,sub_003_day_20_data.csv,1,300,189.0,Training at home,,,,,,,,,,,,,
3,20,4741,A,35.507379144498636,68.04563970854836,1.7753689572249316,1.0688584090859672,A,756.9171659997664,Correct,sub_003_day_20_data.csv,1,300,189.0,Training at home,,,,,,,,,,,,,
3,20,4742,B,67.4076783604478,43.61537203350808,3.37038391802239,0.6851086618202735,B,759.6663330041338,Correct,sub_003_day_20_data.csv,1,300,189.0,Training at home,,,,,,,,,,,,,
3,20,4743,B,62.416283523645866,45.79076551158768,3.1208141761822934,0.7192796626672835,B,538.3985830121674,Correct,sub_003_day_20_data.csv,1,300,189.0,Training at home,,,,,,,,,,,,,
3,20,4744,B,71.60476749285435,41.58174608609742,3.5802383746427178,0.653164540137599,B,464.87149997847155,Correct,sub_003_day_20_data.csv,1,300,189.0,Training at home,,,,,,,,,,,,,
3,20,4745,B,44.459224279762736,21.167477660009915,2.2229612139881367,0.3324979615585661,B,786.0970000037923,Correct,sub_003_day_20_data.csv,1,300,189.0,Training at home,,,,,,,,,,,,,
3,20,4746,B,47.06563708820827,39.769512635777026,2.3532818544104135,0.6246980436670178,B,651.7725829908159,Correct,sub_003_day_20_data.csv,1,300,189.0,Training at home,,,,,,,,,,,,,
3,20,4747,B,72.88560350857985,45.659953370160665,3.644280175428992,0.7172248703547464,B,605.8109579898883,Correct,sub_003_day_20_data.csv,1,300,189.0,Training at home,,,,,,,,,,,,,
3,20,4748,A,50.87029790056971,57.68971154645476,2.5435148950284856,0.9061878699102828,A,722.4606660020072,Correct,sub_003_day_20_data.csv,1,300,189.0,Training at home,,,,,,,,,,,,,
3,20,4749,B,67.02211272885103,37.43585559839875,3.3511056364425515,0.5880410446438892,B,525.2387499785982,Correct,sub_003_day_20_data.csv,1,300,189.0,Training at home,,,,,,,,,,,,,
3,20,4750,B,82.5780101755658,67.48472501853973,4.1289005087782895,1.0600475817388588,B,804.333082982339,Correct,sub_003_day_20_data.csv,1,300,190.0,Training at home,,,,,,,,,,,,,
3,20,4751,A,39.78769836907722,56.78075726220558,1.989384918453861,0.8919100494010517,A,809.6720830071718,Correct,sub_003_day_20_data.csv,1,300,190.0,Training at home,,,,,,,,,,,,,
3,20,4752,A,20.359014431191493,38.949462230702416,1.017950721559575,0.6118167220262392,A,599.5683329820167,Correct,sub_003_day_20_data.csv,1,300,190.0,Training at home,,,,,,,,,,,,,
3,20,4753,B,80.9693308437971,63.13509177817829,4.048466542189854,0.9917237025702114,B,538.4301239973865,Correct,sub_003_day_20_data.csv,1,300,190.0,Training at home,,,,,,,,,,,,,
3,20,4754,B,65.37851881962476,45.30776234550109,3.268925940981238,0.7116926666760924,B,488.7107500107959,Correct,sub_003_day_20_data.csv,1,300,190.0,Training at home,,,,,,,,,,,,,
3,20,4755,B,43.07173383081216,15.78824078430825,2.153586691540608,0.2480011063054477,B,747.4116249941289,Correct,sub_003_day_20_data.csv,1,300,190.0,Training at home,,,,,,,,,,,,,
3,20,4756,B,34.33712522955696,14.00070523031436,1.716856261477848,0.2199225634831589,A,1667.894125013845,Incorrect,sub_003_day_20_data.csv,0,300,190.0,Training at home,,,,,,,,,,,,,
3,20,4757,B,62.869930426204206,40.63157155760951,3.14349652131021,0.6382392335459701,B,492.98350000754,Correct,sub_003_day_20_data.csv,1,300,190.0,Training at home,,,,,,,,,,,,,
3,20,4758,B,38.41602622214401,21.120390727708106,1.9208013111072009,0.3317583217555688,B,581.3561670074705,Correct,sub_003_day_20_data.csv,1,300,190.0,Training at home,,,,,,,,,,,,,
3,20,4759,A,18.60952709288873,43.87267161619778,0.9304763546444365,0.689150314214022,A,543.6624579888303,Correct,sub_003_day_20_data.csv,1,300,190.0,Training at home,,,,,,,,,,,,,
3,20,4760,A,53.18956825446938,64.31701378764681,2.6594784127234687,1.0102892900805234,A,597.7112499822397,Correct,sub_003_day_20_data.csv,1,300,190.0,Training at home,,,,,,,,,,,,,
3,20,4761,B,56.746486420467576,38.807562940405326,2.837324321023379,0.6095877731865045,B,463.9117079786956,Correct,sub_003_day_20_data.csv,1,300,190.0,Training at home,,,,,,,,,,,,,
3,20,4762,A,64.52991571784406,89.5500474161471,3.226495785892203,1.4066488554559269,A,636.6887489857618,Correct,sub_003_day_20_data.csv,1,300,190.0,Training at home,,,,,,,,,,,,,
3,20,4763,A,53.05797811779739,81.80974421449268,2.6528989058898698,1.2850644570815517,A,505.23654199787416,Correct,sub_003_day_20_data.csv,1,300,190.0,Training at home,,,,,,,,,,,,,
3,20,4764,B,80.23123721824788,67.82045183379871,4.011561860912394,1.0653211662210125,B,719.0160419850145,Correct,sub_003_day_20_data.csv,1,300,190.0,Training at home,,,,,,,,,,,,,
3,20,4765,A,53.23662672214796,64.89228349926836,2.6618313361073977,1.019325605579838,B,822.0836670079734,Incorrect,sub_003_day_20_data.csv,0,300,190.0,Training at home,,,,,,,,,,,,,
3,20,4766,B,51.620721672107074,41.250386395879694,2.5810360836053534,0.6479595542951799,B,655.2320829941891,Correct,sub_003_day_20_data.csv,1,300,190.0,Training at home,,,,,,,,,,,,,
3,20,4767,B,68.34984798502433,42.24587427673343,3.4174923992512163,0.6635966413613188,B,561.3817079865839,Correct,sub_003_day_20_data.csv,1,300,190.0,Training at home,,,,,,,,,,,,,
3,20,4768,B,75.21804128904648,55.01998687320694,3.760902064452324,0.8642519328073689,B,390.7847079972271,Correct,sub_003_day_20_data.csv,1,300,190.0,Training at home,,,,,,,,,,,,,
3,20,4769,B,52.90902043581984,31.664849698936237,2.645451021790992,0.4973902959560152,B,516.4958329987712,Correct,sub_003_day_20_data.csv,1,300,190.0,Training at home,,,,,,,,,,,,,
3,20,4770,B,50.46380620212062,21.07317762356685,2.523190310106031,0.3310167000499521,B,855.4192489827983,Correct,sub_003_day_20_data.csv,1,300,190.0,Training at home,,,,,,,,,,,,,
3,20,4771,A,61.137185366209685,74.64201714341247,3.0568592683104843,1.1724740635343402,A,997.9548330011312,Correct,sub_003_day_20_data.csv,1,300,190.0,Training at home,,,,,,,,,,,,,
3,20,4772,A,41.07766171712697,60.739480111447726,2.0538830858563486,0.9540935225049376,A,549.8768739926163,Correct,sub_003_day_20_data.csv,1,300,190.0,Training at home,,,,,,,,,,,,,
3,20,4773,A,38.95872571232928,55.664621684581974,1.947936285616464,0.8743778327456891,A,739.5551670051645,Correct,sub_003_day_20_data.csv,1,300,190.0,Training at home,,,,,,,,,,,,,
3,20,4774,A,60.17560712654476,81.29453776559508,3.008780356327238,1.2769716131068576,A,437.3665410093963,Correct,sub_003_day_20_data.csv,1,300,190.0,Training at home,,,,,,,,,,,,,
3,20,4775,A,42.96599728980485,50.852767106111365,2.1482998644902422,0.7987933977763606,A,411.6814580047503,Correct,sub_003_day_20_data.csv,1,300,191.0,Training at home,,,,,,,,,,,,,
3,20,4776,B,69.48656525889481,44.7161038549139,3.4743282629447405,0.7023989168387786,B,601.9905419962015,Correct,sub_003_day_20_data.csv,1,300,191.0,Training at home,,,,,,,,,,,,,
3,20,4777,B,31.25344628326236,16.864581888981277,1.562672314163118,0.2649082328414353,B,579.7333749942482,Correct,sub_003_day_20_data.csv,1,300,191.0,Training at home,,,,,,,,,,,,,
3,20,4778,B,61.58568472986536,34.08597156952671,3.079284236493268,0.5354211893664783,B,501.7531249905005,Correct,sub_003_day_20_data.csv,1,300,191.0,Training at home,,,,,,,,,,,,,
3,20,4779,A,41.40189200050773,68.03283459832525,2.0700946000253864,1.0686572668849406,A,582.4294160120189,Correct,sub_003_day_20_data.csv,1,300,191.0,Training at home,,,,,,,,,,,,,
3,20,4780,A,43.14236477827623,57.48701608376133,2.1571182389138115,0.9030039370277144,A,559.7732489986811,Correct,sub_003_day_20_data.csv,1,300,191.0,Training at home,,,,,,,,,,,,,
3,20,4781,B,88.44467684540047,63.59286781950634,4.422233842270023,0.9989144318123394,B,407.2231659956742,Correct,sub_003_day_20_data.csv,1,300,191.0,Training at home,,,,,,,,,,,,,
3,20,4782,A,68.07707566935093,81.39857565835453,3.403853783467547,1.2786058365047976,B,470.4989579913672,Incorrect,sub_003_day_20_data.csv,0,300,191.0,Training at home,,,,,,,,,,,,,
3,20,4783,B,74.76338266624747,44.36526232759483,3.7381691333123737,0.6968879110147795,B,396.9704999763053,Correct,sub_003_day_20_data.csv,1,300,191.0,Training at home,,,,,,,,,,,,,
3,20,4784,A,53.142502792907294,70.94320334775614,2.657125139645365,1.1143732322971875,A,645.7586660108063,Correct,sub_003_day_20_data.csv,1,300,191.0,Training at home,,,,,,,,,,,,,
3,20,4785,A,39.070583429327414,65.37898885040842,1.9535291714663707,1.0269707553578604,A,925.3909999970348,Correct,sub_003_day_20_data.csv,1,300,191.0,Training at home,,,,,,,,,,,,,
3,20,4786,B,50.41809360688438,21.490114191499128,2.520904680344219,0.3375659243440971,B,373.6578329990152,Correct,sub_003_day_20_data.csv,1,300,191.0,Training at home,,,,,,,,,,,,,
3,20,4787,A,60.327038203702465,71.1950388577373,3.0163519101851235,1.118329055237537,A,486.3932489824947,Correct,sub_003_day_20_data.csv,1,300,191.0,Training at home,,,,,,,,,,,,,
3,20,4788,A,32.55200480981181,42.91039137872498,1.6276002404905907,0.6740348515903258,A,609.1024159977678,Correct,sub_003_day_20_data.csv,1,300,191.0,Training at home,,,,,,,,,,,,,
3,20,4789,B,64.20237123083307,55.44447878754701,3.2101185615416536,0.8709198362053641,A,1011.0419160046148,Incorrect,sub_003_day_20_data.csv,0,300,191.0,Training at home,,,,,,,,,,,,,
3,20,4790,A,66.5011229910679,78.9944518942255,3.3250561495533955,1.240841948726256,A,491.635498998221,Correct,sub_003_day_20_data.csv,1,300,191.0,Training at home,,,,,,,,,,,,,
3,20,4791,A,38.99365034762337,54.625973137009694,1.9496825173811687,0.8580627795121152,A,467.0680419949349,Correct,sub_003_day_20_data.csv,1,300,191.0,Training at home,,,,,,,,,,,,,
3,20,4792,B,35.28303890894928,20.062651157432448,1.764151945447464,0.3151433874386227,B,1305.2467080124188,Correct,sub_003_day_20_data.csv,1,300,191.0,Training at home,,,,,,,,,,,,,
3,20,4793,A,48.13517928488666,57.859409310223064,2.4067589642443328,0.9088534761502084,A,805.8014159905724,Correct,sub_003_day_20_data.csv,1,300,191.0,Training at home,,,,,,,,,,,,,
3,20,4794,B,54.64559472804508,44.00137500526232,2.732279736402254,0.6911719823219081,B,441.7788330174517,Correct,sub_003_day_20_data.csv,1,300,191.0,Training at home,,,,,,,,,,,,,
3,20,4795,A,14.89858887066885,31.614534672698,0.7449294435334424,0.4965999493720391,A,470.6754999933764,Correct,sub_003_day_20_data.csv,1,300,191.0,Training at home,,,,,,,,,,,,,
3,20,4796,A,47.57367202043973,54.36640800821924,2.3786836010219865,0.8539855400034344,B,1454.5519159873948,Incorrect,sub_003_day_20_data.csv,0,300,191.0,Training at home,,,,,,,,,,,,,
3,20,4797,A,52.08659047865771,70.85127298621339,2.604329523932886,1.1129291935548646,A,694.0042079950217,Correct,sub_003_day_20_data.csv,1,300,191.0,Training at home,,,,,,,,,,,,,
3,20,4798,A,40.68819541785968,58.30158467206499,2.034409770892984,0.9157991504920132,A,526.8734160054009,Correct,sub_003_day_20_data.csv,1,300,191.0,Training at home,,,,,,,,,,,,,
3,20,4799,A,21.546393929835908,37.145015148339304,1.0773196964917957,0.5834725335375217,A,476.9659580197185,Correct,sub_003_day_20_data.csv,1,300,191.0,Training at home,,,,,,,,,,,,,
