subject,day,trial,cat,x,y,xt,yt,resp,rt,fb,f_name,acc,n_trials,block,session_type,ns_left_digit,ns_right_digit,ns_left_size,ns_right_size,ns_congruent,ns_cue,ns_correct_side,ns_resp,ns_rt,ns_fb,acc_stroop,acc_stroop_mean,resp_key
3,19,4200,B,79.5061208945659,55.28659877501808,3.975306044728295,0.8684398627678162,B,486.7236249992857,Correct,sub_003_day_19_data.csv,1,300,168.0,Training at home,,,,,,,,,,,,,
3,19,4201,B,57.781442334645554,28.64664805460687,2.8890721167322777,0.4499804953916265,B,663.7482910009567,Correct,sub_003_day_19_data.csv,1,300,168.0,Training at home,,,,,,,,,,,,,
3,19,4202,A,41.27621126400774,52.27489170856075,2.063810563200387,0.8211320787940822,A,947.6182500075084,Correct,sub_003_day_19_data.csv,1,300,168.0,Training at home,,,,,,,,,,,,,
3,19,4203,B,81.9624613165376,51.286222973272686,4.09812306582688,0.8056021066160077,B,849.3732499919133,Correct,sub_003_day_19_data.csv,1,300,168.0,Training at home,,,,,,,,,,,,,
3,19,4204,A,51.04415316618287,76.48979176478659,2.552207658309144,1.201498839414333,A,783.9957079995656,Correct,sub_003_day_19_data.csv,1,300,168.0,Training at home,,,,,,,,,,,,,
3,19,4205,B,43.71524512923008,21.585403852630055,2.185762256461504,0.3390627308409569,B,604.2994589952286,Correct,sub_003_day_19_data.csv,1,300,168.0,Training at home,,,,,,,,,,,,,
3,19,4206,B,41.26107427033459,18.577574852448176,2.0630537135167293,0.2918158633898283,B,678.0959589959821,Correct,sub_003_day_19_data.csv,1,300,168.0,Training at home,,,,,,,,,,,,,
3,19,4207,A,66.853490019155,84.44426861613879,3.34267450095775,1.3264474696111237,A,1077.137959000538,Correct,sub_003_day_19_data.csv,1,300,168.0,Training at home,,,,,,,,,,,,,
3,19,4208,A,34.913997201507044,64.45399701490554,1.7456998600753522,1.0124410175826284,A,632.027375002508,Correct,sub_003_day_19_data.csv,1,300,168.0,Training at home,,,,,,,,,,,,,
3,19,4209,A,50.272298294023855,69.55109525780384,2.513614914701193,1.092506049555202,A,520.7322089991067,Correct,sub_003_day_19_data.csv,1,300,168.0,Training at home,,,,,,,,,,,,,
3,19,4210,A,12.1337524650239,38.66960729133693,0.6066876232511951,0.6074207709183319,A,534.3927500071004,Correct,sub_003_day_19_data.csv,1,300,168.0,Training at home,,,,,,,,,,,,,
3,19,4211,B,88.41090490602679,62.385810571066386,4.420545245301339,0.979954020891533,A,453.5422920016572,Incorrect,sub_003_day_19_data.csv,0,300,168.0,Training at home,,,,,,,,,,,,,
3,19,4212,A,47.348157739715774,64.91830067507537,2.3674078869857884,1.0197342824217506,A,513.9107499999227,Correct,sub_003_day_19_data.csv,1,300,168.0,Training at home,,,,,,,,,,,,,
3,19,4213,A,19.61906821676507,38.067734563915955,0.9809534108382536,0.597966576224023,A,509.4527909968747,Correct,sub_003_day_19_data.csv,1,300,168.0,Training at home,,,,,,,,,,,,,
3,19,4214,A,47.35902230413029,60.68323810177248,2.3679511152065147,0.9532100750828432,A,956.0438750049798,Correct,sub_003_day_19_data.csv,1,300,168.0,Training at home,,,,,,,,,,,,,
3,19,4215,B,42.764057373999634,20.430327296414276,2.138202868699982,0.3209188307242505,B,488.8194169907365,Correct,sub_003_day_19_data.csv,1,300,168.0,Training at home,,,,,,,,,,,,,
3,19,4216,A,20.026041960745776,33.14081455497734,1.0013020980372886,0.5205746976994925,A,626.0025829978986,Correct,sub_003_day_19_data.csv,1,300,168.0,Training at home,,,,,,,,,,,,,
3,19,4217,A,50.98730949846297,74.01791478439017,2.549365474923148,1.1626706866033774,A,524.3259170092642,Correct,sub_003_day_19_data.csv,1,300,168.0,Training at home,,,,,,,,,,,,,
3,19,4218,B,86.41270829020006,69.66789953056147,4.3206354145100025,1.0943408067812186,B,837.3900419974234,Correct,sub_003_day_19_data.csv,1,300,168.0,Training at home,,,,,,,,,,,,,
3,19,4219,A,66.53622974854136,83.90531402259498,3.326811487427068,1.3179815906526453,A,656.5512920060428,Correct,sub_003_day_19_data.csv,1,300,168.0,Training at home,,,,,,,,,,,,,
3,19,4220,B,68.69438812890655,46.61233017514565,3.4347194064453275,0.732184770224697,B,704.9819579988252,Correct,sub_003_day_19_data.csv,1,300,168.0,Training at home,,,,,,,,,,,,,
3,19,4221,A,36.33732165568334,67.06482926493047,1.8168660827841672,1.0534518746647967,A,483.51341600937303,Correct,sub_003_day_19_data.csv,1,300,168.0,Training at home,,,,,,,,,,,,,
3,19,4222,B,72.64229839212885,49.03695625839686,3.6321149196064426,0.770270707678918,B,487.65087498759385,Correct,sub_003_day_19_data.csv,1,300,168.0,Training at home,,,,,,,,,,,,,
3,19,4223,A,37.602568341943346,45.95091601466237,1.8801284170971673,0.7217953008869243,A,887.4235840048641,Correct,sub_003_day_19_data.csv,1,300,168.0,Training at home,,,,,,,,,,,,,
3,19,4224,B,47.67018575108464,27.990999124240847,2.3835092875542316,0.4396815860767669,B,718.688207998639,Correct,sub_003_day_19_data.csv,1,300,168.0,Training at home,,,,,,,,,,,,,
3,19,4225,B,74.35685291796332,53.68498369983,3.7178426458981666,0.8432817519973685,B,493.5418749955715,Correct,sub_003_day_19_data.csv,1,300,169.0,Training at home,,,,,,,,,,,,,
3,19,4226,B,33.79521101935348,19.20539551767704,1.689760550967674,0.3016776473381026,A,762.5879580009496,Incorrect,sub_003_day_19_data.csv,0,300,169.0,Training at home,,,,,,,,,,,,,
3,19,4227,B,71.17754544033453,50.99274279313482,3.5588772720167263,0.8009921307265313,B,650.1192919968162,Correct,sub_003_day_19_data.csv,1,300,169.0,Training at home,,,,,,,,,,,,,
3,19,4228,B,72.84353298079344,43.4072501336638,3.642176649039672,0.6818394906622638,B,399.9022500065621,Correct,sub_003_day_19_data.csv,1,300,169.0,Training at home,,,,,,,,,,,,,
3,19,4229,A,65.06038188303611,77.01570560564127,3.253019094151806,1.2097598747085845,A,636.538709004526,Correct,sub_003_day_19_data.csv,1,300,169.0,Training at home,,,,,,,,,,,,,
3,19,4230,B,72.68484320173297,61.17012952292951,3.634242160086649,0.9608581476418572,B,567.1858339919709,Correct,sub_003_day_19_data.csv,1,300,169.0,Training at home,,,,,,,,,,,,,
3,19,4231,A,15.98407681371206,35.54227212356775,0.7992038406856031,0.5582967049764487,A,860.1696660043672,Correct,sub_003_day_19_data.csv,1,300,169.0,Training at home,,,,,,,,,,,,,
3,19,4232,B,52.080120943167465,30.503181502172584,2.6040060471583732,0.4791428545917073,B,762.1008749993052,Correct,sub_003_day_19_data.csv,1,300,169.0,Training at home,,,,,,,,,,,,,
3,19,4233,A,31.6128557391433,62.875824473618934,1.5806427869571649,0.9876511412736128,A,1098.041874996852,Correct,sub_003_day_19_data.csv,1,300,169.0,Training at home,,,,,,,,,,,,,
3,19,4234,B,57.91262188430032,33.72384545391514,2.895631094215016,0.5297329256440867,B,442.9982919973554,Correct,sub_003_day_19_data.csv,1,300,169.0,Training at home,,,,,,,,,,,,,
3,19,4235,A,56.71186392685938,77.53453001296616,2.8355931963429692,1.217909549441359,A,921.261958006653,Correct,sub_003_day_19_data.csv,1,300,169.0,Training at home,,,,,,,,,,,,,
3,19,4236,A,46.75225976301442,71.4464130611991,2.3376129881507213,1.122277631992025,A,891.2861249991693,Correct,sub_003_day_19_data.csv,1,300,169.0,Training at home,,,,,,,,,,,,,
3,19,4237,B,66.30654703113606,48.400348437898025,3.315327351556803,0.7602708954184334,B,513.0412910075393,Correct,sub_003_day_19_data.csv,1,300,169.0,Training at home,,,,,,,,,,,,,
3,19,4238,B,77.10721255914018,46.95107416801179,3.855360627957009,0.7375057484218769,B,427.95854099676944,Correct,sub_003_day_19_data.csv,1,300,169.0,Training at home,,,,,,,,,,,,,
3,19,4239,B,79.97746144780709,64.85362063068722,3.9988730723903543,1.018718290660332,B,425.05449999589473,Correct,sub_003_day_19_data.csv,1,300,169.0,Training at home,,,,,,,,,,,,,
3,19,4240,B,44.52229962246427,28.760535508236103,2.2261149811232133,0.4517694353299145,B,472.53770899260417,Correct,sub_003_day_19_data.csv,1,300,169.0,Training at home,,,,,,,,,,,,,
3,19,4241,A,42.66129505268614,56.67654255173922,2.133064752634307,0.890273048557066,A,873.2704580033896,Correct,sub_003_day_19_data.csv,1,300,169.0,Training at home,,,,,,,,,,,,,
3,19,4242,B,80.33364320650124,59.30745217388392,4.016682160325062,0.9315992802630084,B,417.87912500149105,Correct,sub_003_day_19_data.csv,1,300,169.0,Training at home,,,,,,,,,,,,,
3,19,4243,A,37.75763580464718,48.43130709004406,1.887881790232359,0.7607571927891682,A,582.5154589983867,Correct,sub_003_day_19_data.csv,1,300,169.0,Training at home,,,,,,,,,,,,,
3,19,4244,B,53.03820918365833,24.35527492743681,2.651910459182917,0.3825717639409757,B,405.0388330069836,Correct,sub_003_day_19_data.csv,1,300,169.0,Training at home,,,,,,,,,,,,,
3,19,4245,A,49.499155888824085,59.40289567481403,2.474957794441204,0.9330985032697832,A,868.5658750036964,Correct,sub_003_day_19_data.csv,1,300,169.0,Training at home,,,,,,,,,,,,,
3,19,4246,A,37.84102987119783,49.745612057269575,1.8920514935598916,0.7814022469372296,A,735.0129580008797,Correct,sub_003_day_19_data.csv,1,300,169.0,Training at home,,,,,,,,,,,,,
3,19,4247,A,39.72850063810136,54.69995989728105,1.986425031905068,0.8592249608247724,A,644.4500419893302,Correct,sub_003_day_19_data.csv,1,300,169.0,Training at home,,,,,,,,,,,,,
3,19,4248,B,57.17375275499584,44.419349958993664,2.858687637749792,0.6977375175420428,B,651.9552079989808,Correct,sub_003_day_19_data.csv,1,300,169.0,Training at home,,,,,,,,,,,,,
3,19,4249,A,69.07529559916948,84.52882547934834,3.453764779958474,1.3277756857124725,A,801.5999159979401,Correct,sub_003_day_19_data.csv,1,300,169.0,Training at home,,,,,,,,,,,,,
3,19,4250,A,23.83234835485778,36.739170400175674,1.1916174177428889,0.5770975391408775,A,955.1275830017404,Correct,sub_003_day_19_data.csv,1,300,170.0,Training at home,,,,,,,,,,,,,
3,19,4251,A,47.275599277317994,57.157977030892,2.3637799638659,0.8978354036715221,A,682.1264589962084,Correct,sub_003_day_19_data.csv,1,300,170.0,Training at home,,,,,,,,,,,,,
3,19,4252,A,50.8525957916242,77.07533096577484,2.54262978958121,1.2106964676754006,A,679.0818330046022,Correct,sub_003_day_19_data.csv,1,300,170.0,Training at home,,,,,,,,,,,,,
3,19,4253,B,51.97581245962936,40.29010979834951,2.598790622981468,0.6328755647741049,B,708.2863340037875,Correct,sub_003_day_19_data.csv,1,300,170.0,Training at home,,,,,,,,,,,,,
3,19,4254,A,40.506127704114206,72.49800603678105,2.02530638520571,1.1387960158252992,A,518.4034169942606,Correct,sub_003_day_19_data.csv,1,300,170.0,Training at home,,,,,,,,,,,,,
3,19,4255,A,59.02725080020413,78.02714321208813,2.9513625400102064,1.2256474994784738,A,573.9925839880016,Correct,sub_003_day_19_data.csv,1,300,170.0,Training at home,,,,,,,,,,,,,
3,19,4256,B,38.57084669581992,27.41980853168174,1.928542334790996,0.4307093452298503,B,528.1575409899233,Correct,sub_003_day_19_data.csv,1,300,170.0,Training at home,,,,,,,,,,,,,
3,19,4257,A,28.953818314192752,49.040339558556255,1.4476909157096376,0.7703238524335463,A,529.135208009393,Correct,sub_003_day_19_data.csv,1,300,170.0,Training at home,,,,,,,,,,,,,
3,19,4258,A,58.90248725644099,71.5196602962944,2.945124362822049,1.1234281968703808,A,471.2181659997441,Correct,sub_003_day_19_data.csv,1,300,170.0,Training at home,,,,,,,,,,,,,
3,19,4259,B,54.43270826941333,38.60901122905628,2.7216354134706666,0.6064689301978453,B,390.2292499988107,Correct,sub_003_day_19_data.csv,1,300,170.0,Training at home,,,,,,,,,,,,,
3,19,4260,A,37.25277234789275,58.97304702425921,1.8626386173946377,0.9263464564560908,A,716.9959159946302,Correct,sub_003_day_19_data.csv,1,300,170.0,Training at home,,,,,,,,,,,,,
3,19,4261,A,41.63463874314645,74.38710601114957,2.081731937157323,1.1684699288321632,A,1083.5522919951472,Correct,sub_003_day_19_data.csv,1,300,170.0,Training at home,,,,,,,,,,,,,
3,19,4262,B,37.740476399221194,18.371788175113508,1.8870238199610596,0.2885833738212221,B,492.041582998354,Correct,sub_003_day_19_data.csv,1,300,170.0,Training at home,,,,,,,,,,,,,
3,19,4263,A,39.29867772628304,67.74474368923624,1.964933886314152,1.0641319454671403,A,442.75225000455976,Correct,sub_003_day_19_data.csv,1,300,170.0,Training at home,,,,,,,,,,,,,
3,19,4264,B,62.778431789554595,44.70215005383294,3.13892158947773,0.7021797310439506,B,417.48941599507816,Correct,sub_003_day_19_data.csv,1,300,170.0,Training at home,,,,,,,,,,,,,
3,19,4265,B,40.68999328800376,26.830902441136892,2.034499664400188,0.4214588299913005,B,393.8309590012068,Correct,sub_003_day_19_data.csv,1,300,170.0,Training at home,,,,,,,,,,,,,
3,19,4266,B,66.14790301220074,49.75387928504273,3.307395150610037,0.781532108247418,B,422.68516701005865,Correct,sub_003_day_19_data.csv,1,300,170.0,Training at home,,,,,,,,,,,,,
3,19,4267,A,28.80389466062187,47.52473402441485,1.4401947330310936,0.7465167763745529,A,532.962375000352,Correct,sub_003_day_19_data.csv,1,300,170.0,Training at home,,,,,,,,,,,,,
3,19,4268,B,75.99371619013718,52.47614446814829,3.799685809506859,0.8242933497492566,B,448.6867079976946,Correct,sub_003_day_19_data.csv,1,300,170.0,Training at home,,,,,,,,,,,,,
3,19,4269,B,62.583920953122586,33.42367882401434,3.129196047656129,0.5250179192473409,B,404.4936670106836,Correct,sub_003_day_19_data.csv,1,300,170.0,Training at home,,,,,,,,,,,,,
3,19,4270,B,83.17571071709571,63.85789700224106,4.158785535854786,1.003077500479671,B,557.9281249956694,Correct,sub_003_day_19_data.csv,1,300,170.0,Training at home,,,,,,,,,,,,,
3,19,4271,B,68.4614869130494,51.85809594749546,3.42307434565247,0.8145850662890317,B,450.1218749937834,Correct,sub_003_day_19_data.csv,1,300,170.0,Training at home,,,,,,,,,,,,,
3,19,4272,B,61.42284788405446,38.52363031544803,3.0711423942027234,0.6051277699431029,B,397.1710420009913,Correct,sub_003_day_19_data.csv,1,300,170.0,Training at home,,,,,,,,,,,,,
3,19,4273,B,59.53850220807741,42.34130461330174,2.97692511040387,0.6650956575827818,B,349.1887910058722,Correct,sub_003_day_19_data.csv,1,300,170.0,Training at home,,,,,,,,,,,,,
3,19,4274,B,38.34646996701299,13.57527951010777,1.9173234983506495,0.213239991896913,B,553.1982079992304,Correct,sub_003_day_19_data.csv,1,300,170.0,Training at home,,,,,,,,,,,,,
3,19,4275,B,72.38921664522333,56.275725799631346,3.6194608322611663,0.883977033737777,B,380.4319160117302,Correct,sub_003_day_19_data.csv,1,300,171.0,Training at home,,,,,,,,,,,,,
3,19,4276,A,66.39558068000679,77.8334437556897,3.3197790340003395,1.2226048755323455,A,567.8966249979567,Correct,sub_003_day_19_data.csv,1,300,171.0,Training at home,,,,,,,,,,,,,
3,19,4277,A,50.61886819543615,61.56536023013033,2.530943409771808,0.9670664170729334,A,597.4443750019418,Correct,sub_003_day_19_data.csv,1,300,171.0,Training at home,,,,,,,,,,,,,
3,19,4278,A,49.2926715124064,56.02617091433717,2.46463357562032,0.880057034766239,A,1888.250167001388,Correct,sub_003_day_19_data.csv,1,300,171.0,Training at home,,,,,,,,,,,,,
3,19,4279,A,30.13933342748396,55.866575025031295,1.506966671374198,0.8775501083993067,A,633.6938750027912,Correct,sub_003_day_19_data.csv,1,300,171.0,Training at home,,,,,,,,,,,,,
3,19,4280,B,59.910223719218315,32.770656243645014,2.9955111859609156,0.5147602645417583,B,450.2946670108941,Correct,sub_003_day_19_data.csv,1,300,171.0,Training at home,,,,,,,,,,,,,
3,19,4281,B,50.56797125567557,34.2734917825893,2.5283985627837784,0.5383667499852635,B,614.5830000023125,Correct,sub_003_day_19_data.csv,1,300,171.0,Training at home,,,,,,,,,,,,,
3,19,4282,A,24.924320130561163,45.91190970253365,1.2462160065280583,0.7211825911687884,A,565.5923329904908,Correct,sub_003_day_19_data.csv,1,300,171.0,Training at home,,,,,,,,,,,,,
3,19,4283,A,41.33302252704383,61.68440838989488,2.0666511263521916,0.968936421193632,A,564.3126669892808,Correct,sub_003_day_19_data.csv,1,300,171.0,Training at home,,,,,,,,,,,,,
3,19,4284,B,44.12073852028868,31.355959877189264,2.206036926014434,0.4925382659821704,B,2133.861124995746,Correct,sub_003_day_19_data.csv,1,300,171.0,Training at home,,,,,,,,,,,,,
3,19,4285,B,57.32550800380417,34.95548081571306,2.8662754001902084,0.5490794086667155,B,389.08554198860656,Correct,sub_003_day_19_data.csv,1,300,171.0,Training at home,,,,,,,,,,,,,
3,19,4286,B,54.75736757714105,44.24557474378752,2.7378683788570526,0.695007862844705,B,652.026833005948,Correct,sub_003_day_19_data.csv,1,300,171.0,Training at home,,,,,,,,,,,,,
3,19,4287,A,35.70635953577056,64.05878860729707,1.785317976788528,1.00623309843273,A,628.9910829946166,Correct,sub_003_day_19_data.csv,1,300,171.0,Training at home,,,,,,,,,,,,,
3,19,4288,B,71.82252658567508,54.34032053744341,3.5911263292837536,0.8535757589707338,B,491.72462499700487,Correct,sub_003_day_19_data.csv,1,300,171.0,Training at home,,,,,,,,,,,,,
3,19,4289,B,75.0976351685432,58.31057347556603,3.75488175842716,0.9159403462872304,B,530.1347920030821,Correct,sub_003_day_19_data.csv,1,300,171.0,Training at home,,,,,,,,,,,,,
3,19,4290,A,30.71698813679178,54.071829306312864,1.5358494068395891,0.8493583085743689,A,692.848500009859,Correct,sub_003_day_19_data.csv,1,300,171.0,Training at home,,,,,,,,,,,,,
3,19,4291,A,54.86102579469964,83.73794108814866,2.743051289734982,1.3153525027463135,A,578.4982089971891,Correct,sub_003_day_19_data.csv,1,300,171.0,Training at home,,,,,,,,,,,,,
3,19,4292,A,55.37897426396806,81.90148404544294,2.7689487131984034,1.2865055029763262,A,489.8832920007408,Correct,sub_003_day_19_data.csv,1,300,171.0,Training at home,,,,,,,,,,,,,
3,19,4293,A,23.318184218213737,38.66728498957707,1.1659092109106866,0.607384292287591,A,722.851124999579,Correct,sub_003_day_19_data.csv,1,300,171.0,Training at home,,,,,,,,,,,,,
3,19,4294,B,89.06905634802833,66.45373101678383,4.453452817401416,1.0438527658298014,B,461.54645801289007,Correct,sub_003_day_19_data.csv,1,300,171.0,Training at home,,,,,,,,,,,,,
3,19,4295,A,33.466503677404134,51.25487509007008,1.6733251838702068,0.8051096952181334,A,894.7423749923473,Correct,sub_003_day_19_data.csv,1,300,171.0,Training at home,,,,,,,,,,,,,
3,19,4296,A,33.811073011801454,62.79458474677158,1.690553650590073,0.9863750306283964,A,622.1777089958778,Correct,sub_003_day_19_data.csv,1,300,171.0,Training at home,,,,,,,,,,,,,
3,19,4297,A,35.20713867379621,56.2490092401685,1.7603569336898104,0.8835573710030887,A,504.2690410045907,Correct,sub_003_day_19_data.csv,1,300,171.0,Training at home,,,,,,,,,,,,,
3,19,4298,B,81.13224330753629,52.50692616421743,4.056612165376814,0.8247768675004358,B,387.6093330036383,Correct,sub_003_day_19_data.csv,1,300,171.0,Training at home,,,,,,,,,,,,,
3,19,4299,A,58.76808131261036,75.81400224989211,2.938404065630518,1.1908835625375056,A,666.0218339966377,Correct,sub_003_day_19_data.csv,1,300,171.0,Training at home,,,,,,,,,,,,,
3,19,4300,B,54.9018062770235,47.25575664975907,2.745090313851175,0.7422916896535505,B,619.6580420073587,Correct,sub_003_day_19_data.csv,1,300,172.0,Training at home,,,,,,,,,,,,,
3,19,4301,B,76.46485032196388,49.656631770570925,3.823242516098194,0.7800045478621959,B,544.8053339932812,Correct,sub_003_day_19_data.csv,1,300,172.0,Training at home,,,,,,,,,,,,,
3,19,4302,B,73.21917316369145,56.5733568335595,3.660958658184573,0.8886522110861221,B,628.4093339927495,Correct,sub_003_day_19_data.csv,1,300,172.0,Training at home,,,,,,,,,,,,,
3,19,4303,B,64.15015363543678,33.668797712803496,3.207507681771838,0.5288682377487215,B,683.9239580003778,Correct,sub_003_day_19_data.csv,1,300,172.0,Training at home,,,,,,,,,,,,,
3,19,4304,B,55.05923382086904,47.146433344370784,2.752961691043452,0.7405744431881804,B,480.9762920049252,Correct,sub_003_day_19_data.csv,1,300,172.0,Training at home,,,,,,,,,,,,,
3,19,4305,B,41.00465161280203,25.2003352235438,2.0502325806401016,0.3958459400314264,B,590.1805000030436,Correct,sub_003_day_19_data.csv,1,300,172.0,Training at home,,,,,,,,,,,,,
3,19,4306,B,63.234577760656926,37.23250798859901,3.1617288880328465,0.5848468678585297,B,458.90183400479145,Correct,sub_003_day_19_data.csv,1,300,172.0,Training at home,,,,,,,,,,,,,
3,19,4307,A,62.75693533456892,78.37063820692744,3.137846766728446,1.231043106240134,A,527.8549999929965,Correct,sub_003_day_19_data.csv,1,300,172.0,Training at home,,,,,,,,,,,,,
3,19,4308,A,59.100450257569506,86.32079382968824,2.9550225128784753,1.3559238587369389,A,506.6668750077952,Correct,sub_003_day_19_data.csv,1,300,172.0,Training at home,,,,,,,,,,,,,
3,19,4309,A,58.5126233691288,79.18196019265895,2.92563116845644,1.243787322190484,A,413.1065830006264,Correct,sub_003_day_19_data.csv,1,300,172.0,Training at home,,,,,,,,,,,,,
3,19,4310,B,80.29428337081066,62.53826599634125,4.014714168540533,0.9823487851117504,B,577.4013750051381,Correct,sub_003_day_19_data.csv,1,300,172.0,Training at home,,,,,,,,,,,,,
3,19,4311,A,51.53943606420777,77.515163497761,2.5769718032103883,1.2176053409318883,A,503.42224999621976,Correct,sub_003_day_19_data.csv,1,300,172.0,Training at home,,,,,,,,,,,,,
3,19,4312,A,54.63151460130457,71.07352000338284,2.7315757300652286,1.1164202415369735,A,469.0464580053231,Correct,sub_003_day_19_data.csv,1,300,172.0,Training at home,,,,,,,,,,,,,
3,19,4313,A,59.529497753576834,68.78814137615073,2.9764748876788416,1.0805215980070562,A,457.09666699985974,Correct,sub_003_day_19_data.csv,1,300,172.0,Training at home,,,,,,,,,,,,,
3,19,4314,B,55.48179952647649,42.13864689105837,2.7740899763238245,0.6619123175258167,B,631.8721249990631,Correct,sub_003_day_19_data.csv,1,300,172.0,Training at home,,,,,,,,,,,,,
3,19,4315,B,67.52703461043507,49.74417902905583,3.3763517305217534,0.7813797369826861,B,604.4267919933191,Correct,sub_003_day_19_data.csv,1,300,172.0,Training at home,,,,,,,,,,,,,
3,19,4316,B,31.162705461319945,14.526228853616033,1.5581352730659972,0.228177469254421,B,525.2885000081733,Correct,sub_003_day_19_data.csv,1,300,172.0,Training at home,,,,,,,,,,,,,
3,19,4317,B,72.56076479954964,43.31707451135017,3.6280382399774824,0.6804230152992968,B,419.70870799559634,Correct,sub_003_day_19_data.csv,1,300,172.0,Training at home,,,,,,,,,,,,,
3,19,4318,A,66.47378464595513,85.26593812057789,3.3236892322977565,1.3393542240052467,A,1257.1926659875317,Correct,sub_003_day_19_data.csv,1,300,172.0,Training at home,,,,,,,,,,,,,
3,19,4319,A,24.423731311580894,39.31785805733983,1.2211865655790448,0.6176034701391254,B,493.02958299813326,Incorrect,sub_003_day_19_data.csv,0,300,172.0,Training at home,,,,,,,,,,,,,
3,19,4320,B,54.065031235783586,26.115744888355447,2.7032515617891795,0.4102251614214133,B,436.91499999840744,Correct,sub_003_day_19_data.csv,1,300,172.0,Training at home,,,,,,,,,,,,,
3,19,4321,B,71.35858240405614,55.8488148994827,3.567929120202807,0.8772711329995551,B,1096.4105000020936,Correct,sub_003_day_19_data.csv,1,300,172.0,Training at home,,,,,,,,,,,,,
3,19,4322,B,78.42199385870259,54.90264516868585,3.9210996929351296,0.8624087336229531,B,701.9046659988817,Correct,sub_003_day_19_data.csv,1,300,172.0,Training at home,,,,,,,,,,,,,
3,19,4323,A,62.821908061648514,88.90288456113197,3.1410954030824256,1.396483245100968,A,904.1704169940205,Correct,sub_003_day_19_data.csv,1,300,172.0,Training at home,,,,,,,,,,,,,
3,19,4324,B,53.21756710416619,44.26828212219712,2.6608783552083093,0.6953645495106743,B,556.2913339963416,Correct,sub_003_day_19_data.csv,1,300,172.0,Training at home,,,,,,,,,,,,,
3,19,4325,B,76.98676632912434,59.7091401019145,3.849338316456217,0.9379089794816914,B,2631.765375001123,Correct,sub_003_day_19_data.csv,1,300,173.0,Training at home,,,,,,,,,,,,,
3,19,4326,A,23.699717772222,53.88473540381899,1.1849858886111,0.8464194444263378,A,1063.1611669959966,Correct,sub_003_day_19_data.csv,1,300,173.0,Training at home,,,,,,,,,,,,,
3,19,4327,B,88.72818379616368,63.15044676057056,4.436409189808184,0.9919648980696092,B,1146.2831670069136,Correct,sub_003_day_19_data.csv,1,300,173.0,Training at home,,,,,,,,,,,,,
3,19,4328,A,57.99058680630036,80.46415887305464,2.899529340315018,1.2639280519643523,A,1278.4019579994492,Correct,sub_003_day_19_data.csv,1,300,173.0,Training at home,,,,,,,,,,,,,
3,19,4329,B,58.26714687568006,35.90369189302968,2.9133573437840035,0.5639738734394673,B,2624.6987909980817,Correct,sub_003_day_19_data.csv,1,300,173.0,Training at home,,,,,,,,,,,,,
3,19,4330,A,61.958167693544304,80.31343261937405,3.0979083846772153,1.2615604495080217,A,856.5949999901932,Correct,sub_003_day_19_data.csv,1,300,173.0,Training at home,,,,,,,,,,,,,
3,19,4331,B,87.72251149200063,69.68384104088018,4.386125574600032,1.0945912154397404,B,640.1197499944828,Correct,sub_003_day_19_data.csv,1,300,173.0,Training at home,,,,,,,,,,,,,
3,19,4332,A,20.55660179345379,45.050988549985746,1.0278300896726895,0.7076592733279656,A,458.25562499521766,Correct,sub_003_day_19_data.csv,1,300,173.0,Training at home,,,,,,,,,,,,,
3,19,4333,A,21.277779648806938,34.80200594461488,1.0638889824403466,0.5466686310289521,A,1251.188499998534,Correct,sub_003_day_19_data.csv,1,300,173.0,Training at home,,,,,,,,,,,,,
3,19,4334,A,48.5494809428211,78.44959558052291,2.427474047141055,1.2322833657643055,A,510.859125002753,Correct,sub_003_day_19_data.csv,1,300,173.0,Training at home,,,,,,,,,,,,,
3,19,4335,B,56.0423824910171,48.8640661981325,2.8021191245508548,0.7675549569628919,B,930.1569160015788,Correct,sub_003_day_19_data.csv,1,300,173.0,Training at home,,,,,,,,,,,,,
3,19,4336,A,20.249424105034535,48.87409293180997,1.0124712052517268,0.7677124565271953,A,1151.3171249971492,Correct,sub_003_day_19_data.csv,1,300,173.0,Training at home,,,,,,,,,,,,,
3,19,4337,A,39.11405331955875,58.53267181133375,1.9557026659779375,0.9194290587873422,A,943.4247919998596,Correct,sub_003_day_19_data.csv,1,300,173.0,Training at home,,,,,,,,,,,,,
3,19,4338,A,50.58822796400748,78.87738201043072,2.529411398200374,1.2390030192918244,A,753.1852919928497,Correct,sub_003_day_19_data.csv,1,300,173.0,Training at home,,,,,,,,,,,,,
3,19,4339,B,83.41374561273827,57.6138432317644,4.170687280636913,0.9049961332099252,B,413.3908330113627,Correct,sub_003_day_19_data.csv,1,300,173.0,Training at home,,,,,,,,,,,,,
3,19,4340,B,62.84756986062577,44.49462184442268,3.142378493031288,0.6989198855534712,B,907.0862910011784,Correct,sub_003_day_19_data.csv,1,300,173.0,Training at home,,,,,,,,,,,,,
3,19,4341,A,54.81720743885927,75.63229259658912,2.7408603719429636,1.1880292739779903,A,570.2977920009289,Correct,sub_003_day_19_data.csv,1,300,173.0,Training at home,,,,,,,,,,,,,
3,19,4342,A,37.895454491875974,54.029003550786385,1.8947727245937984,0.8486856031796369,A,1168.6408330133418,Correct,sub_003_day_19_data.csv,1,300,173.0,Training at home,,,,,,,,,,,,,
3,19,4343,B,55.32199550709093,33.62816125107943,2.766099775354547,0.5282299217006204,B,565.8684169902699,Correct,sub_003_day_19_data.csv,1,300,173.0,Training at home,,,,,,,,,,,,,
3,19,4344,B,53.807812837606704,27.39697231181332,2.6903906418803354,0.4303506347269785,B,610.9139170002891,Correct,sub_003_day_19_data.csv,1,300,173.0,Training at home,,,,,,,,,,,,,
3,19,4345,A,59.701649844933485,69.46638861905825,2.9850824922466743,1.091175480785235,A,875.7231250056066,Correct,sub_003_day_19_data.csv,1,300,173.0,Training at home,,,,,,,,,,,,,
3,19,4346,A,38.74919278912384,70.51105743296475,1.937459639456192,1.10758510014125,A,572.7335000119638,Correct,sub_003_day_19_data.csv,1,300,173.0,Training at home,,,,,,,,,,,,,
3,19,4347,A,30.54871655326551,53.069407592401376,1.5274358276632756,0.8336123051132527,A,827.3788329970557,Correct,sub_003_day_19_data.csv,1,300,173.0,Training at home,,,,,,,,,,,,,
3,19,4348,B,74.37571712652517,42.98843519833612,3.7187858563262584,0.6752607610420682,B,452.4193339893827,Correct,sub_003_day_19_data.csv,1,300,173.0,Training at home,,,,,,,,,,,,,
3,19,4349,B,64.6550184652589,37.54450602425417,3.232750923262945,0.5897477215422732,B,423.6108750046697,Correct,sub_003_day_19_data.csv,1,300,173.0,Training at home,,,,,,,,,,,,,
3,19,4350,A,63.817950657235485,89.25419259382878,3.1908975328617744,1.402001578774305,A,486.83416699350346,Correct,sub_003_day_19_data.csv,1,300,174.0,Training at home,,,,,,,,,,,,,
3,19,4351,B,62.53645547868375,50.85590243228613,3.1268227739341876,0.798842647364747,B,497.0312500081491,Correct,sub_003_day_19_data.csv,1,300,174.0,Training at home,,,,,,,,,,,,,
3,19,4352,A,41.15697233137784,48.97484929466792,2.057848616568892,0.76929513377398,A,731.6641670040553,Correct,sub_003_day_19_data.csv,1,300,174.0,Training at home,,,,,,,,,,,,,
3,19,4353,A,24.700275998972117,47.6370081867943,1.235013799948606,0.7482803747931489,A,541.554040988558,Correct,sub_003_day_19_data.csv,1,300,174.0,Training at home,,,,,,,,,,,,,
3,19,4354,A,17.856067746729753,39.06276238231959,0.8928033873364876,0.6135964366460948,A,491.3376659969799,Correct,sub_003_day_19_data.csv,1,300,174.0,Training at home,,,,,,,,,,,,,
3,19,4355,B,66.6309053979953,37.10156550648225,3.3315452698997654,0.5827900281592255,B,394.1645419981796,Correct,sub_003_day_19_data.csv,1,300,174.0,Training at home,,,,,,,,,,,,,
3,19,4356,A,16.07914448960456,30.91083534620491,0.803957224480228,0.4855462661998053,A,437.0697499980451,Correct,sub_003_day_19_data.csv,1,300,174.0,Training at home,,,,,,,,,,,,,
3,19,4357,A,22.804431996026768,42.024115014370274,1.1402215998013383,0.6601132550137909,A,518.1977089960128,Correct,sub_003_day_19_data.csv,1,300,174.0,Training at home,,,,,,,,,,,,,
3,19,4358,B,48.214893725340985,23.453813221745072,2.410744686267049,0.3684116365805074,B,415.143000005628,Correct,sub_003_day_19_data.csv,1,300,174.0,Training at home,,,,,,,,,,,,,
3,19,4359,B,61.86492542825715,48.025273921180414,3.0932462714128577,0.7543792386870892,B,479.9670840002363,Correct,sub_003_day_19_data.csv,1,300,174.0,Training at home,,,,,,,,,,,,,
3,19,4360,A,53.75366035567572,60.82623289062867,2.687683017783786,0.9554562319737044,A,1963.659208995523,Correct,sub_003_day_19_data.csv,1,300,174.0,Training at home,,,,,,,,,,,,,
3,19,4361,A,11.81400542433191,31.767393456346344,0.5907002712165955,0.4990010495307707,A,521.4070410002023,Correct,sub_003_day_19_data.csv,1,300,174.0,Training at home,,,,,,,,,,,,,
3,19,4362,B,53.57655510213824,36.28208494715387,2.678827755106912,0.569917657634497,B,804.7532089985907,Correct,sub_003_day_19_data.csv,1,300,174.0,Training at home,,,,,,,,,,,,,
3,19,4363,A,14.64100131516783,32.848121073359096,0.7320500657583915,0.515977079241465,A,456.6155830107163,Correct,sub_003_day_19_data.csv,1,300,174.0,Training at home,,,,,,,,,,,,,
3,19,4364,A,20.37360531618257,50.479326500584776,1.0186802658091283,0.7929274064619884,A,824.1995419957675,Correct,sub_003_day_19_data.csv,1,300,174.0,Training at home,,,,,,,,,,,,,
3,19,4365,B,73.9500130351226,61.05292018641686,3.6975006517561297,0.959017027689256,B,932.0490000100108,Correct,sub_003_day_19_data.csv,1,300,174.0,Training at home,,,,,,,,,,,,,
3,19,4366,B,72.47083583442772,48.14676183556183,3.6235417917213857,0.7562875663836924,B,569.6671659970889,Correct,sub_003_day_19_data.csv,1,300,174.0,Training at home,,,,,,,,,,,,,
3,19,4367,A,12.49982938222345,33.118663708489215,0.6249914691111725,0.5202267530165031,A,1219.0391670010283,Correct,sub_003_day_19_data.csv,1,300,174.0,Training at home,,,,,,,,,,,,,
3,19,4368,A,17.42264324408069,42.16557651469456,0.8711321622040344,0.6623353270647138,A,998.777875007363,Correct,sub_003_day_19_data.csv,1,300,174.0,Training at home,,,,,,,,,,,,,
3,19,4369,B,68.80972844730515,38.54550450287043,3.440486422365258,0.6054713688756502,B,944.327000004705,Correct,sub_003_day_19_data.csv,1,300,174.0,Training at home,,,,,,,,,,,,,
3,19,4370,B,47.2983537274352,33.434188688382406,2.36491768637176,0.5251830078107856,B,838.6544579989277,Correct,sub_003_day_19_data.csv,1,300,174.0,Training at home,,,,,,,,,,,,,
3,19,4371,B,73.45099056493399,47.3943490352472,3.6725495282466993,0.7444686937540155,B,855.5154999921797,Correct,sub_003_day_19_data.csv,1,300,174.0,Training at home,,,,,,,,,,,,,
3,19,4372,B,55.74281537490263,28.334303978000705,2.787140768745131,0.4450742061093353,B,706.9122090033488,Correct,sub_003_day_19_data.csv,1,300,174.0,Training at home,,,,,,,,,,,,,
3,19,4373,B,35.634829567428596,20.643846717690955,1.7817414783714298,0.3242727859506583,B,495.2812910050852,Correct,sub_003_day_19_data.csv,1,300,174.0,Training at home,,,,,,,,,,,,,
3,19,4374,A,36.56459058229554,58.46555502871104,1.8282295291147768,0.918374790831242,A,507.47541700548027,Correct,sub_003_day_19_data.csv,1,300,174.0,Training at home,,,,,,,,,,,,,
3,19,4375,B,72.78957342753804,40.23195187779183,3.639478671376902,0.6319620222942445,B,1315.9503750066506,Correct,sub_003_day_19_data.csv,1,300,175.0,Training at home,,,,,,,,,,,,,
3,19,4376,B,41.536521630919296,28.907135930736757,2.076826081545965,0.4540722293816207,B,480.8698329870822,Correct,sub_003_day_19_data.csv,1,300,175.0,Training at home,,,,,,,,,,,,,
3,19,4377,A,60.2277124420924,78.9521293204124,3.01138562210462,1.2401771472913945,A,586.3341670046793,Correct,sub_003_day_19_data.csv,1,300,175.0,Training at home,,,,,,,,,,,,,
3,19,4378,B,56.18796385085279,24.833937894642172,2.809398192542639,0.3900905842475651,B,621.5391250007087,Correct,sub_003_day_19_data.csv,1,300,175.0,Training at home,,,,,,,,,,,,,
3,19,4379,B,45.64088441485868,37.73098084089732,2.282044220742934,0.5926768611125012,B,651.1973750020843,Correct,sub_003_day_19_data.csv,1,300,175.0,Training at home,,,,,,,,,,,,,
3,19,4380,B,71.71105247958266,62.04549165070216,3.5855526239791335,0.974608303791064,B,437.5730829924578,Correct,sub_003_day_19_data.csv,1,300,175.0,Training at home,,,,,,,,,,,,,
3,19,4381,A,15.611748469531204,39.6540338913042,0.7805874234765602,0.6228841077906098,A,432.4688750057248,Correct,sub_003_day_19_data.csv,1,300,175.0,Training at home,,,,,,,,,,,,,
3,19,4382,A,45.048748627522215,52.697197476434816,2.252437431376111,0.8277656422836911,A,881.5457500022603,Correct,sub_003_day_19_data.csv,1,300,175.0,Training at home,,,,,,,,,,,,,
3,19,4383,A,30.47363027918019,58.10809600221711,1.5236815139590094,0.9127598375732784,A,484.28899999998976,Correct,sub_003_day_19_data.csv,1,300,175.0,Training at home,,,,,,,,,,,,,
3,19,4384,B,83.98414141261705,68.87344732382886,4.199207070630853,1.0818615806997216,B,419.8548750136979,Correct,sub_003_day_19_data.csv,1,300,175.0,Training at home,,,,,,,,,,,,,
3,19,4385,B,42.99341898058261,19.835806752187764,2.14967094902913,0.3115801238534995,B,750.2923340070993,Correct,sub_003_day_19_data.csv,1,300,175.0,Training at home,,,,,,,,,,,,,
3,19,4386,A,29.28713935231645,56.84590887020922,1.4643569676158226,0.8929334484664206,A,562.9202500131214,Correct,sub_003_day_19_data.csv,1,300,175.0,Training at home,,,,,,,,,,,,,
3,19,4387,A,28.969991849545607,57.119106997839275,1.4484995924772803,0.8972248346201062,A,546.7116249928949,Correct,sub_003_day_19_data.csv,1,300,175.0,Training at home,,,,,,,,,,,,,
3,19,4388,A,37.389427091807775,51.48206938149635,1.8694713545903887,0.8086784548025449,A,576.1221660068259,Correct,sub_003_day_19_data.csv,1,300,175.0,Training at home,,,,,,,,,,,,,
3,19,4389,B,61.11076140682373,40.34340700309448,3.055538070341186,0.6337127553085231,B,439.5025419944432,Correct,sub_003_day_19_data.csv,1,300,175.0,Training at home,,,,,,,,,,,,,
3,19,4390,B,38.50468618018843,28.175405000949493,1.9252343090094215,0.4425782268145001,B,546.3002909964416,Correct,sub_003_day_19_data.csv,1,300,175.0,Training at home,,,,,,,,,,,,,
3,19,4391,A,52.83529071101968,60.37082909500572,2.641764535550984,0.9483027658799744,A,716.8468750023749,Correct,sub_003_day_19_data.csv,1,300,175.0,Training at home,,,,,,,,,,,,,
3,19,4392,B,54.30313057743404,45.142160068228286,2.715156528871702,0.7090913921876024,B,580.8690409903647,Correct,sub_003_day_19_data.csv,1,300,175.0,Training at home,,,,,,,,,,,,,
3,19,4393,A,23.01545795779003,47.732798865450086,1.1507728978895015,0.749785051254886,A,957.1643750095972,Correct,sub_003_day_19_data.csv,1,300,175.0,Training at home,,,,,,,,,,,,,
3,19,4394,B,86.63279030674552,69.9712281984389,4.331639515337276,1.0991054823543531,A,1510.1234169997042,Incorrect,sub_003_day_19_data.csv,0,300,175.0,Training at home,,,,,,,,,,,,,
3,19,4395,B,79.36007463838973,59.81845302203607,3.9680037319194863,0.9396260628156734,B,522.9972499946598,Correct,sub_003_day_19_data.csv,1,300,175.0,Training at home,,,,,,,,,,,,,
3,19,4396,A,49.14671468764614,64.10592695988709,2.4573357343823066,1.0069735459437257,A,527.5945000030333,Correct,sub_003_day_19_data.csv,1,300,175.0,Training at home,,,,,,,,,,,,,
3,19,4397,B,72.10813465423787,44.00754832172888,3.6054067327118937,0.6912689525502064,B,425.37616701156367,Correct,sub_003_day_19_data.csv,1,300,175.0,Training at home,,,,,,,,,,,,,
3,19,4398,B,64.68256673563597,50.39171782615453,3.234128336781799,0.7915512526220845,B,1076.8154999968829,Correct,sub_003_day_19_data.csv,1,300,175.0,Training at home,,,,,,,,,,,,,
3,19,4399,A,16.035453818991535,40.20883220967494,0.8017726909495767,0.6315988593966972,A,688.1054999976186,Correct,sub_003_day_19_data.csv,1,300,175.0,Training at home,,,,,,,,,,,,,
3,19,4400,B,53.33486950812901,30.224903399560336,2.6667434754064505,0.4747716723775995,B,398.73416599584743,Correct,sub_003_day_19_data.csv,1,300,176.0,Training at home,,,,,,,,,,,,,
3,19,4401,A,46.58952231850948,53.67004664279985,2.3294761159254738,0.8430471212542078,A,670.9726249973755,Correct,sub_003_day_19_data.csv,1,300,176.0,Training at home,,,,,,,,,,,,,
3,19,4402,A,38.99101769492545,49.221729973552854,1.9495508847462728,0.7731731264094708,B,419.4551669934299,Incorrect,sub_003_day_19_data.csv,0,300,176.0,Training at home,,,,,,,,,,,,,
3,19,4403,A,48.76416405187203,78.8680108796582,2.4382082025936014,1.2388558179138702,A,536.9037500058766,Correct,sub_003_day_19_data.csv,1,300,176.0,Training at home,,,,,,,,,,,,,
3,19,4404,A,37.85328383498837,67.96662915343897,1.8926641917494185,1.0676173141885288,A,619.5152500004042,Correct,sub_003_day_19_data.csv,1,300,176.0,Training at home,,,,,,,,,,,,,
3,19,4405,A,22.20332575116988,52.77460695566091,1.110166287558494,0.8289815875399655,A,526.7766249889974,Correct,sub_003_day_19_data.csv,1,300,176.0,Training at home,,,,,,,,,,,,,
3,19,4406,A,51.82402658061625,70.30361998039447,2.591201329030812,1.104326680255879,A,859.7599580098176,Correct,sub_003_day_19_data.csv,1,300,176.0,Training at home,,,,,,,,,,,,,
3,19,4407,A,42.264684676331,50.207068843496245,2.11323423381655,0.7886507931850238,A,1229.4728749984642,Correct,sub_003_day_19_data.csv,1,300,176.0,Training at home,,,,,,,,,,,,,
3,19,4408,B,35.92063184513764,13.281017855745365,1.796031592256882,0.2086177406390225,B,590.627042009146,Correct,sub_003_day_19_data.csv,1,300,176.0,Training at home,,,,,,,,,,,,,
3,19,4409,A,26.570005950957103,43.51505568448327,1.328500297547855,0.683532896294617,A,596.186041002511,Correct,sub_003_day_19_data.csv,1,300,176.0,Training at home,,,,,,,,,,,,,
3,19,4410,B,59.55826652285173,50.72365892119015,2.9779133261425863,0.7967653711500268,B,2241.1313750053523,Correct,sub_003_day_19_data.csv,1,300,176.0,Training at home,,,,,,,,,,,,,
3,19,4411,B,60.59743922819213,29.968080665401224,3.029871961409606,0.470737510303054,B,472.3740830086171,Correct,sub_003_day_19_data.csv,1,300,176.0,Training at home,,,,,,,,,,,,,
3,19,4412,B,57.942685744772575,34.14130205519174,2.8971342872386288,0.5362903186029023,B,475.88220798934344,Correct,sub_003_day_19_data.csv,1,300,176.0,Training at home,,,,,,,,,,,,,
3,19,4413,B,58.93619842623097,40.06390357905878,2.946809921311549,0.6293223257905044,B,511.792791003245,Correct,sub_003_day_19_data.csv,1,300,176.0,Training at home,,,,,,,,,,,,,
3,19,4414,A,58.8618096910502,67.38668783150779,2.94309048455251,1.058507617206068,A,714.5679579989519,Correct,sub_003_day_19_data.csv,1,300,176.0,Training at home,,,,,,,,,,,,,
3,19,4415,A,10.52146479231013,31.95814870605568,0.5260732396155064,0.5019974259863734,A,615.437333995942,Correct,sub_003_day_19_data.csv,1,300,176.0,Training at home,,,,,,,,,,,,,
3,19,4416,A,47.617408444965186,63.81572102240054,2.3808704222482593,1.0024150017375464,A,858.5702499985928,Correct,sub_003_day_19_data.csv,1,300,176.0,Training at home,,,,,,,,,,,,,
3,19,4417,A,27.0852738813299,49.941182664197186,1.3542636940664952,0.7844742628471391,A,634.1116249968763,Correct,sub_003_day_19_data.csv,1,300,176.0,Training at home,,,,,,,,,,,,,
3,19,4418,A,35.325414257629006,43.8219909370288,1.7662707128814503,0.6883542239672409,A,1058.5755409992998,Correct,sub_003_day_19_data.csv,1,300,176.0,Training at home,,,,,,,,,,,,,
3,19,4419,A,67.40991820064751,88.11612590524707,3.3704959100323753,1.384124869033587,A,567.6096670067636,Correct,sub_003_day_19_data.csv,1,300,176.0,Training at home,,,,,,,,,,,,,
3,19,4420,B,84.41831062416091,68.21237825691253,4.220915531208045,1.0714775320790226,B,663.8365000108024,Correct,sub_003_day_19_data.csv,1,300,176.0,Training at home,,,,,,,,,,,,,
3,19,4421,A,52.57290406690587,79.06085496750009,2.6286452033452936,1.241885005762132,A,497.76679200294893,Correct,sub_003_day_19_data.csv,1,300,176.0,Training at home,,,,,,,,,,,,,
3,19,4422,A,35.92972377304607,66.80287428976881,1.7964861886523036,1.0493370955371009,A,539.2227499978617,Correct,sub_003_day_19_data.csv,1,300,176.0,Training at home,,,,,,,,,,,,,
3,19,4423,B,66.83633748897162,55.91574895895647,3.3418168744485808,0.8783225307471441,B,1307.4028750124853,Correct,sub_003_day_19_data.csv,1,300,176.0,Training at home,,,,,,,,,,,,,
3,19,4424,B,72.55400852847008,55.973689785198125,3.627700426423504,0.8792326631174624,B,491.3852919999045,Correct,sub_003_day_19_data.csv,1,300,176.0,Training at home,,,,,,,,,,,,,
3,19,4425,B,56.96191743591758,27.97591318627774,2.848095871795879,0.4394446167173798,B,557.5180419982644,Correct,sub_003_day_19_data.csv,1,300,177.0,Training at home,,,,,,,,,,,,,
3,19,4426,A,25.9180693701917,40.475298297609726,1.295903468509585,0.6357844989181309,A,621.622083010152,Correct,sub_003_day_19_data.csv,1,300,177.0,Training at home,,,,,,,,,,,,,
3,19,4427,B,55.15932550593061,33.622900621519406,2.7579662752965306,0.5281472879247253,B,424.3969160015695,Correct,sub_003_day_19_data.csv,1,300,177.0,Training at home,,,,,,,,,,,,,
3,19,4428,A,58.77021426209252,82.33235728354072,2.938510713104626,1.293273643973508,A,505.0928330019815,Correct,sub_003_day_19_data.csv,1,300,177.0,Training at home,,,,,,,,,,,,,
3,19,4429,B,65.46225715250819,44.019437805043715,3.273112857625409,0.6914557121173907,B,483.7450839986559,Correct,sub_003_day_19_data.csv,1,300,177.0,Training at home,,,,,,,,,,,,,
3,19,4430,A,37.09739088860469,60.41638615458185,1.8548695444302348,0.949018374498392,A,476.2987499998417,Correct,sub_003_day_19_data.csv,1,300,177.0,Training at home,,,,,,,,,,,,,
3,19,4431,B,48.3025557735243,18.468210996534236,2.4151277886762146,0.2900979799582909,B,457.206999999471,Correct,sub_003_day_19_data.csv,1,300,177.0,Training at home,,,,,,,,,,,,,
3,19,4432,B,63.76249588264188,42.365527210951335,3.188124794132094,0.6654761452569159,B,620.1360419945559,Correct,sub_003_day_19_data.csv,1,300,177.0,Training at home,,,,,,,,,,,,,
3,19,4433,A,37.82505369429744,59.55676088192773,1.891252684714872,0.9355154122913406,A,476.1524999921676,Correct,sub_003_day_19_data.csv,1,300,177.0,Training at home,,,,,,,,,,,,,
3,19,4434,B,87.62065867366456,67.31457680019936,4.381032933683229,1.0573748997750612,B,425.017083005514,Correct,sub_003_day_19_data.csv,1,300,177.0,Training at home,,,,,,,,,,,,,
3,19,4435,B,65.33851798602309,55.98594937389581,3.2669258993011545,0.8794252362864057,B,535.0108749989886,Correct,sub_003_day_19_data.csv,1,300,177.0,Training at home,,,,,,,,,,,,,
3,19,4436,A,23.81023050456418,37.99719876144377,1.190511525228209,0.5968586024297146,A,878.9565000042785,Correct,sub_003_day_19_data.csv,1,300,177.0,Training at home,,,,,,,,,,,,,
3,19,4437,A,36.443214685656386,46.45601168270231,1.8221607342828192,0.7297293250872959,A,541.4339169947198,Correct,sub_003_day_19_data.csv,1,300,177.0,Training at home,,,,,,,,,,,,,
3,19,4438,B,72.65923059675129,43.97587693734664,3.632961529837565,0.6907714596076852,B,485.6399580021389,Correct,sub_003_day_19_data.csv,1,300,177.0,Training at home,,,,,,,,,,,,,
3,19,4439,B,61.748025400293834,36.239235111014786,3.0874012700146913,0.5692445739823866,B,489.75295800482854,Correct,sub_003_day_19_data.csv,1,300,177.0,Training at home,,,,,,,,,,,,,
3,19,4440,B,89.4775337674282,65.38817304305687,4.47387668837141,1.027115020318628,B,545.4601669916883,Correct,sub_003_day_19_data.csv,1,300,177.0,Training at home,,,,,,,,,,,,,
3,19,4441,B,32.54609497781808,15.468036108106867,1.627304748890904,0.2429713430134509,B,767.0386249956209,Correct,sub_003_day_19_data.csv,1,300,177.0,Training at home,,,,,,,,,,,,,
3,19,4442,A,49.901451808526645,70.44552114197718,2.495072590426332,1.1065556584896998,A,542.5102920125937,Correct,sub_003_day_19_data.csv,1,300,177.0,Training at home,,,,,,,,,,,,,
3,19,4443,A,48.952311877581224,69.39414420252153,2.447615593879062,1.0900406681439618,A,965.9545829927084,Correct,sub_003_day_19_data.csv,1,300,177.0,Training at home,,,,,,,,,,,,,
3,19,4444,B,64.12095704804786,50.63087011523768,3.2060478524023925,0.7953078479944486,B,436.19645899161696,Correct,sub_003_day_19_data.csv,1,300,177.0,Training at home,,,,,,,,,,,,,
3,19,4445,A,35.45423333905666,43.63008836368675,1.7727116669528329,0.6853398253941592,A,666.7619590007234,Correct,sub_003_day_19_data.csv,1,300,177.0,Training at home,,,,,,,,,,,,,
3,19,4446,A,36.689911449745566,50.56119930361776,1.8344955724872785,0.7942134614446746,A,537.6368340075715,Correct,sub_003_day_19_data.csv,1,300,177.0,Training at home,,,,,,,,,,,,,
3,19,4447,B,32.30296171901409,10.972245709240903,1.6151480859507046,0.1723516325676667,B,1100.9931250009686,Correct,sub_003_day_19_data.csv,1,300,177.0,Training at home,,,,,,,,,,,,,
3,19,4448,B,37.84677675797823,14.65550101510194,1.8923388378989117,0.23020807161861,A,1482.540708995657,Incorrect,sub_003_day_19_data.csv,0,300,177.0,Training at home,,,,,,,,,,,,,
3,19,4449,B,56.1071288399499,29.376893444259935,2.8053564419974952,0.4614511631488858,B,1374.9826249986654,Correct,sub_003_day_19_data.csv,1,300,177.0,Training at home,,,,,,,,,,,,,
3,19,4450,B,47.39213927560053,33.61352884386633,2.3696069637800266,0.5280000763855953,B,1071.6405830025906,Correct,sub_003_day_19_data.csv,1,300,178.0,Training at home,,,,,,,,,,,,,
3,19,4451,A,56.650298763884535,85.75925308212487,2.8325149381942265,1.3471031973007566,A,694.763374995091,Correct,sub_003_day_19_data.csv,1,300,178.0,Training at home,,,,,,,,,,,,,
3,19,4452,B,83.67818631291051,60.42518948679578,4.183909315645526,0.949156656917444,B,481.8172920058714,Correct,sub_003_day_19_data.csv,1,300,178.0,Training at home,,,,,,,,,,,,,
3,19,4453,B,66.11025639423363,53.202995617366035,3.3055128197116814,0.8357107009024355,B,663.4314580005594,Correct,sub_003_day_19_data.csv,1,300,178.0,Training at home,,,,,,,,,,,,,
3,19,4454,A,55.024036472114375,65.04917437823407,2.751201823605719,1.0217900417437078,A,530.251958000008,Correct,sub_003_day_19_data.csv,1,300,178.0,Training at home,,,,,,,,,,,,,
3,19,4455,A,18.361391945477724,36.55573462108014,0.9180695972738862,0.5742161366608171,A,461.3049170002341,Correct,sub_003_day_19_data.csv,1,300,178.0,Training at home,,,,,,,,,,,,,
3,19,4456,B,57.893230647506826,44.81432633831062,2.8946615323753413,0.7039417920000611,B,448.27720800822135,Correct,sub_003_day_19_data.csv,1,300,178.0,Training at home,,,,,,,,,,,,,
3,19,4457,B,49.727320170573115,28.412326382940925,2.486366008528656,0.4462997791802133,B,438.91412499942817,Correct,sub_003_day_19_data.csv,1,300,178.0,Training at home,,,,,,,,,,,,,
3,19,4458,A,57.52579527424163,75.53053382540128,2.876289763712082,1.1864308509379802,A,586.9530839991057,Correct,sub_003_day_19_data.csv,1,300,178.0,Training at home,,,,,,,,,,,,,
3,19,4459,B,71.12789739974767,51.810410440967445,3.5563948699873835,0.8138360241040762,B,425.6415420095436,Correct,sub_003_day_19_data.csv,1,300,178.0,Training at home,,,,,,,,,,,,,
3,19,4460,A,49.91900154134037,56.72067600591106,2.495950077067018,0.8909662952340852,A,1269.0909170050872,Correct,sub_003_day_19_data.csv,1,300,178.0,Training at home,,,,,,,,,,,,,
3,19,4461,B,46.3279660348666,16.4564061397949,2.31639830174333,0.2584966231663481,B,550.0867920054588,Correct,sub_003_day_19_data.csv,1,300,178.0,Training at home,,,,,,,,,,,,,
3,19,4462,A,40.11680340558792,68.57764788056525,2.005840170279396,1.0772151739102571,A,512.634041995625,Correct,sub_003_day_19_data.csv,1,300,178.0,Training at home,,,,,,,,,,,,,
3,19,4463,B,30.20041017771815,13.361204287367896,1.5100205088859076,0.2098773061615371,B,502.3851250007283,Correct,sub_003_day_19_data.csv,1,300,178.0,Training at home,,,,,,,,,,,,,
3,19,4464,A,58.85882929475589,73.61249444292973,2.9429414647377943,1.1563023587716377,A,538.3938750019297,Correct,sub_003_day_19_data.csv,1,300,178.0,Training at home,,,,,,,,,,,,,
3,19,4465,B,71.40943513443092,51.0934187745146,3.570471756721546,0.8025735453440094,B,505.4982919973554,Correct,sub_003_day_19_data.csv,1,300,178.0,Training at home,,,,,,,,,,,,,
3,19,4466,A,59.50747529380948,82.79625253294238,2.975373764690474,1.300560493511285,A,498.8910839892924,Correct,sub_003_day_19_data.csv,1,300,178.0,Training at home,,,,,,,,,,,,,
3,19,4467,A,46.391204527729634,68.91387733259383,2.3195602263864816,1.0824966537923246,A,466.41483399434946,Correct,sub_003_day_19_data.csv,1,300,178.0,Training at home,,,,,,,,,,,,,
3,19,4468,B,51.63234297783747,28.60856328016124,2.5816171488918735,0.4493822611535663,B,483.45808299200144,Correct,sub_003_day_19_data.csv,1,300,178.0,Training at home,,,,,,,,,,,,,
3,19,4469,B,48.0037343049778,40.14219022240623,2.40018671524889,0.6305520495085771,B,554.4900829991093,Correct,sub_003_day_19_data.csv,1,300,178.0,Training at home,,,,,,,,,,,,,
3,19,4470,A,37.61114410207351,68.41652515017748,1.8805572051036756,1.0746842639796943,A,664.5866670005489,Correct,sub_003_day_19_data.csv,1,300,178.0,Training at home,,,,,,,,,,,,,
3,19,4471,A,27.813647660112633,46.00498480360727,1.3906823830056316,0.7226446114376134,A,547.5661669916008,Correct,sub_003_day_19_data.csv,1,300,178.0,Training at home,,,,,,,,,,,,,
3,19,4472,A,48.97142045603919,74.82175999257926,2.4485710228019597,1.1752974576067283,A,627.0249160006642,Correct,sub_003_day_19_data.csv,1,300,178.0,Training at home,,,,,,,,,,,,,
3,19,4473,A,37.921594006411325,62.56641135276594,1.8960797003205665,0.9827908913366326,A,1801.6640419955363,Correct,sub_003_day_19_data.csv,1,300,178.0,Training at home,,,,,,,,,,,,,
3,19,4474,B,49.10671047875203,36.009710842537146,2.4553355239376016,0.565639215204037,B,1141.057415996329,Correct,sub_003_day_19_data.csv,1,300,178.0,Training at home,,,,,,,,,,,,,
3,19,4475,B,42.513831895451425,14.569200635839394,2.1256915947725714,0.2288524684311439,B,387.5835830112919,Correct,sub_003_day_19_data.csv,1,300,179.0,Training at home,,,,,,,,,,,,,
3,19,4476,A,46.05396642875629,55.99011841020674,2.3026983214378145,0.8794907233556406,A,502.152582994313,Correct,sub_003_day_19_data.csv,1,300,179.0,Training at home,,,,,,,,,,,,,
3,19,4477,A,23.622899171216208,41.88709646209872,1.1811449585608105,0.6579609726276817,A,602.9906250041677,Correct,sub_003_day_19_data.csv,1,300,179.0,Training at home,,,,,,,,,,,,,
3,19,4478,B,65.35725976742287,39.87560731182764,3.2678629883711436,0.6263645749413458,B,465.58683400508016,Correct,sub_003_day_19_data.csv,1,300,179.0,Training at home,,,,,,,,,,,,,
3,19,4479,A,29.15131415907038,40.40206509724574,1.4575657079535191,0.6346341544968189,A,650.2902080101194,Correct,sub_003_day_19_data.csv,1,300,179.0,Training at home,,,,,,,,,,,,,
3,19,4480,B,84.9671344445046,67.38739813646265,4.24835672222523,1.0585187746502078,B,560.6187919911463,Correct,sub_003_day_19_data.csv,1,300,179.0,Training at home,,,,,,,,,,,,,
3,19,4481,A,25.54314329349843,48.59402128522912,1.2771571646749216,0.7633131013903092,A,536.6619169944897,Correct,sub_003_day_19_data.csv,1,300,179.0,Training at home,,,,,,,,,,,,,
3,19,4482,A,37.954334528877574,55.60601914188085,1.8977167264438788,0.8734573061575315,A,706.7284999939147,Correct,sub_003_day_19_data.csv,1,300,179.0,Training at home,,,,,,,,,,,,,
3,19,4483,B,62.40620655278654,53.69517373111424,3.120310327639327,0.8434418166344808,B,613.803749991348,Correct,sub_003_day_19_data.csv,1,300,179.0,Training at home,,,,,,,,,,,,,
3,19,4484,A,48.93406388194651,69.5043546948709,2.4467031940973256,1.0917718505095284,A,495.18970800272655,Correct,sub_003_day_19_data.csv,1,300,179.0,Training at home,,,,,,,,,,,,,
3,19,4485,B,34.43731203167064,21.106253801595116,1.721865601583532,0.3315362594394643,B,475.5727500014473,Correct,sub_003_day_19_data.csv,1,300,179.0,Training at home,,,,,,,,,,,,,
3,19,4486,A,59.351602548903514,69.86837018647219,2.967580127445176,1.0974897924805658,A,510.6285000074422,Correct,sub_003_day_19_data.csv,1,300,179.0,Training at home,,,,,,,,,,,,,
3,19,4487,B,61.837811159841415,39.44657832999792,3.091890557992071,0.619625403453879,B,1016.8247080000584,Correct,sub_003_day_19_data.csv,1,300,179.0,Training at home,,,,,,,,,,,,,
3,19,4488,A,53.32127927346846,78.36428864908969,2.666063963673423,1.230943367618851,A,804.2481669981498,Correct,sub_003_day_19_data.csv,1,300,179.0,Training at home,,,,,,,,,,,,,
3,19,4489,A,22.06344389737387,52.30099710408654,1.1031721948686934,0.8215421413880967,A,884.5248329889728,Correct,sub_003_day_19_data.csv,1,300,179.0,Training at home,,,,,,,,,,,,,
3,19,4490,A,25.97051712294353,39.798405495911624,1.2985258561471764,0.625151891652718,A,891.6951249993872,Correct,sub_003_day_19_data.csv,1,300,179.0,Training at home,,,,,,,,,,,,,
3,19,4491,A,55.49040010708136,69.5849956334104,2.774520005354068,1.0930385554099995,A,521.0243750043446,Correct,sub_003_day_19_data.csv,1,300,179.0,Training at home,,,,,,,,,,,,,
3,19,4492,B,71.15041865489005,49.84669121417474,3.557520932744502,0.7829899946210515,B,573.5890419891803,Correct,sub_003_day_19_data.csv,1,300,179.0,Training at home,,,,,,,,,,,,,
3,19,4493,A,45.64676461787299,74.66941101315433,2.2823382308936497,1.1729043654340123,A,696.6703750076704,Correct,sub_003_day_19_data.csv,1,300,179.0,Training at home,,,,,,,,,,,,,
3,19,4494,A,52.58979771491849,63.93106338689148,2.629489885745925,1.0042267953622084,A,630.333207998774,Correct,sub_003_day_19_data.csv,1,300,179.0,Training at home,,,,,,,,,,,,,
3,19,4495,B,81.08825795902543,58.62031417995536,4.054412897951272,0.9208057418943666,B,547.2115829907125,Correct,sub_003_day_19_data.csv,1,300,179.0,Training at home,,,,,,,,,,,,,
3,19,4496,B,56.33669569037099,48.278961960560366,2.8168347845185497,0.7583641610911875,B,599.4192079961067,Correct,sub_003_day_19_data.csv,1,300,179.0,Training at home,,,,,,,,,,,,,
3,19,4497,B,46.05737271164908,29.4721942662309,2.302868635582454,0.462948144959811,A,1149.981458002003,Incorrect,sub_003_day_19_data.csv,0,300,179.0,Training at home,,,,,,,,,,,,,
3,19,4498,B,41.61666881789176,15.02721812295001,2.080833440894588,0.2360469902947557,B,625.3267909924034,Correct,sub_003_day_19_data.csv,1,300,179.0,Training at home,,,,,,,,,,,,,
3,19,4499,B,77.76774990443229,49.08379335536405,3.888387495221615,0.7710064230776559,B,726.2354580016108,Correct,sub_003_day_19_data.csv,1,300,179.0,Training at home,,,,,,,,,,,,,
