subject,day,trial,cat,x,y,xt,yt,resp,rt,fb,f_name,acc,n_trials,block,session_type,ns_left_digit,ns_right_digit,ns_left_size,ns_right_size,ns_congruent,ns_cue,ns_correct_side,ns_resp,ns_rt,ns_fb,acc_stroop,acc_stroop_mean,resp_key
3,23,0,A,41.400585935008145,64.09533554947869,2.0700292967504073,1.0068071764580748,B,1034.759790985845,Incorrect,sub_003_day_23_data.csv,0,600,,Button-Switch at home,,,,,,,,,,,,,d
3,23,1,A,64.67871240722211,76.8653477762625,3.2339356203611054,1.207398059447654,A,2452.93337397743,Correct,sub_003_day_23_data.csv,1,600,,Button-Switch at home,,,,,,,,,,,,,k
3,23,2,B,67.21438895712855,50.97537592434274,3.3607194478564275,0.8007193325894658,B,1177.859832008835,Correct,sub_003_day_23_data.csv,1,600,,Button-Switch at home,,,,,,,,,,,,,d
3,23,3,B,56.28004632594216,43.72568710223261,2.814002316297108,0.6868414868676997,B,808.4650409873575,Correct,sub_003_day_23_data.csv,1,600,,Button-Switch at home,,,,,,,,,,,,,d
3,23,4,A,61.9761901602667,72.57738404664713,3.0988095080133347,1.1400428826885585,A,2493.711707997136,Correct,sub_003_day_23_data.csv,1,600,,Button-Switch at home,,,,,,,,,,,,,k
3,23,5,A,60.782938246893494,74.39068086385417,3.0391469123446746,1.1685260824871353,A,2324.7592500410974,Correct,sub_003_day_23_data.csv,1,600,,Button-Switch at home,,,,,,,,,,,,,k
3,23,6,B,80.15721302982635,65.23217584059904,4.007860651491318,1.0246646219925175,B,2512.8289579879493,Correct,sub_003_day_23_data.csv,1,600,,Button-Switch at home,,,,,,,,,,,,,d
3,23,7,B,35.28875940672472,12.33226943480409,1.764437970336236,0.1937148352923523,B,2858.9792910497636,Correct,sub_003_day_23_data.csv,1,600,,Button-Switch at home,,,,,,,,,,,,,d
3,23,8,A,19.98857877736731,36.10802570041616,0.9994289388683656,0.5671835413802943,A,1992.0229989802465,Correct,sub_003_day_23_data.csv,1,600,,Button-Switch at home,,,,,,,,,,,,,k
3,23,9,A,34.901773832351424,45.2521517314318,1.745088691617571,0.7108191371929838,B,4593.124040984549,Incorrect,sub_003_day_23_data.csv,0,600,,Button-Switch at home,,,,,,,,,,,,,d
3,23,10,B,39.24372131233676,23.52671668490187,1.962186065616838,0.3695568015018806,B,3552.90008301381,Correct,sub_003_day_23_data.csv,1,600,,Button-Switch at home,,,,,,,,,,,,,d
3,23,11,B,48.79640700372882,32.763811159900264,2.439820350186441,0.5146527422177297,A,813.5477909818292,Incorrect,sub_003_day_23_data.csv,0,600,,Button-Switch at home,,,,,,,,,,,,,k
3,23,12,A,67.966538938993,82.78874755749038,3.3983269469496498,1.3004426056325584,A,2899.730623990763,Correct,sub_003_day_23_data.csv,1,600,,Button-Switch at home,,,,,,,,,,,,,k
3,23,13,A,51.01195440036953,81.52988842077133,2.5505977200184766,1.2806684925534535,A,883.1372080021538,Correct,sub_003_day_23_data.csv,1,600,,Button-Switch at home,,,,,,,,,,,,,k
3,23,14,A,59.97226641626656,70.02847489581085,2.998613320813328,1.1000047113738831,A,1312.4754580203444,Correct,sub_003_day_23_data.csv,1,600,,Button-Switch at home,,,,,,,,,,,,,k
3,23,15,A,33.808032099978135,50.13553208691631,1.6904016049989068,0.787527096440358,A,1827.8569160029292,Correct,sub_003_day_23_data.csv,1,600,,Button-Switch at home,,,,,,,,,,,,,k
3,23,16,A,63.72996005036677,76.90537282427648,3.1864980025183387,1.2080267714316557,A,966.6510830284096,Correct,sub_003_day_23_data.csv,1,600,,Button-Switch at home,,,,,,,,,,,,,k
3,23,17,B,40.09749333052233,18.22366541334117,2.004874666526117,0.2862566669201551,B,2196.382041031029,Correct,sub_003_day_23_data.csv,1,600,,Button-Switch at home,,,,,,,,,,,,,d
3,23,18,B,62.98915046881799,30.583172774765877,3.1494575234408995,0.4803993545633593,B,1290.442290948704,Correct,sub_003_day_23_data.csv,1,600,,Button-Switch at home,,,,,,,,,,,,,d
3,23,19,B,57.89501517984568,33.766257593422466,2.894750758992284,0.530399133973583,B,718.4402910061181,Correct,sub_003_day_23_data.csv,1,600,,Button-Switch at home,,,,,,,,,,,,,d
3,23,20,A,46.63347136769233,72.56988273120629,2.3316735683846166,1.1399250523011526,A,781.9502489874139,Correct,sub_003_day_23_data.csv,1,600,,Button-Switch at home,,,,,,,,,,,,,k
3,23,21,A,54.90991672510128,71.97788521254749,2.7454958362550643,1.1306259770233429,A,935.4494159924798,Correct,sub_003_day_23_data.csv,1,600,,Button-Switch at home,,,,,,,,,,,,,k
3,23,22,B,87.02168278692062,62.17684798398014,4.351084139346031,0.9766716442492068,B,1088.4026659769006,Correct,sub_003_day_23_data.csv,1,600,,Button-Switch at home,,,,,,,,,,,,,d
3,23,23,A,41.74057994555648,49.260664243909886,2.087028997277824,0.7737847044981034,A,2319.05333296163,Correct,sub_003_day_23_data.csv,1,600,,Button-Switch at home,,,,,,,,,,,,,k
3,23,24,A,60.710514771540055,82.24781132103111,3.035525738577003,1.2919455990999535,A,614.1514159971848,Correct,sub_003_day_23_data.csv,1,600,,Button-Switch at home,,,,,,,,,,,,,k
3,23,25,A,54.711845356420575,82.48607343652168,2.735592267821029,1.2956882116582231,A,1609.262916026637,Correct,sub_003_day_23_data.csv,1,600,,Button-Switch at home,,,,,,,,,,,,,k
3,23,26,B,62.9374335960924,44.454645022866835,3.146871679804621,0.6982919311089025,B,684.0888329898007,Correct,sub_003_day_23_data.csv,1,600,,Button-Switch at home,,,,,,,,,,,,,d
3,23,27,A,68.37144288163978,85.30394447692751,3.418572144081989,1.3399512264547353,A,1773.761457996443,Correct,sub_003_day_23_data.csv,1,600,,Button-Switch at home,,,,,,,,,,,,,k
3,23,28,A,32.984525330286964,48.2062463337019,1.6492262665143482,0.7572219466954889,A,1191.6417910251766,Correct,sub_003_day_23_data.csv,1,600,,Button-Switch at home,,,,,,,,,,,,,k
3,23,29,A,37.89705921797783,48.344300762345256,1.894852960898891,0.7593905005895966,A,1501.6656239749864,Correct,sub_003_day_23_data.csv,1,600,,Button-Switch at home,,,,,,,,,,,,,k
3,23,30,A,13.655026198242322,40.61399425688691,0.6827513099121161,0.6379631299518699,A,983.360415964853,Correct,sub_003_day_23_data.csv,1,600,,Button-Switch at home,,,,,,,,,,,,,k
3,23,31,B,68.79899717542355,55.10187229382694,3.4399498587711776,0.8655381859866483,B,2602.4321239674464,Correct,sub_003_day_23_data.csv,1,600,,Button-Switch at home,,,,,,,,,,,,,d
3,23,32,A,51.18465509590104,75.18125571630839,2.559232754795052,1.1809444032300502,A,3914.5485410117544,Correct,sub_003_day_23_data.csv,1,600,,Button-Switch at home,,,,,,,,,,,,,k
3,23,33,A,56.184047900013375,64.14321866963353,2.809202395000669,1.0075593227506217,B,970.4137499793432,Incorrect,sub_003_day_23_data.csv,0,600,,Button-Switch at home,,,,,,,,,,,,,d
3,23,34,A,60.569006120760235,74.65982753439066,3.028450306038012,1.1727538285016132,A,867.3645410453901,Correct,sub_003_day_23_data.csv,1,600,,Button-Switch at home,,,,,,,,,,,,,k
3,23,35,B,72.04575259477605,42.36814331704447,3.6022876297388025,0.6655172389553321,B,939.8484160192312,Correct,sub_003_day_23_data.csv,1,600,,Button-Switch at home,,,,,,,,,,,,,d
3,23,36,B,40.22672496985132,17.66827738658689,2.011336248492566,0.2775326521964402,B,2413.633958029095,Correct,sub_003_day_23_data.csv,1,600,,Button-Switch at home,,,,,,,,,,,,,d
3,23,37,B,64.53830226996625,41.82695731421839,3.226915113498313,0.6570163091018119,B,930.8848740183748,Correct,sub_003_day_23_data.csv,1,600,,Button-Switch at home,,,,,,,,,,,,,d
3,23,38,B,77.47318737788473,64.59062187345684,3.873659368894237,1.014587115842241,B,2135.867375007365,Correct,sub_003_day_23_data.csv,1,600,,Button-Switch at home,,,,,,,,,,,,,d
3,23,39,B,72.00649219406817,39.639245897937016,3.6003246097034087,0.6226518185339914,B,1133.065999019891,Correct,sub_003_day_23_data.csv,1,600,,Button-Switch at home,,,,,,,,,,,,,d
3,23,40,B,79.2180196840816,57.59284055495304,3.96090098420408,0.9046662239340438,B,801.8486240180209,Correct,sub_003_day_23_data.csv,1,600,,Button-Switch at home,,,,,,,,,,,,,d
3,23,41,B,55.416270028167006,39.225354804743674,2.77081350140835,0.6161504324451792,B,1121.012416027952,Correct,sub_003_day_23_data.csv,1,600,,Button-Switch at home,,,,,,,,,,,,,d
3,23,42,B,83.51153211488877,67.58143823822284,4.175576605744438,1.061566749441166,B,679.1395000182092,Correct,sub_003_day_23_data.csv,1,600,,Button-Switch at home,,,,,,,,,,,,,d
3,23,43,A,53.86682062078672,74.84108642878354,2.693341031039336,1.1756010365567258,A,1588.6353329988196,Correct,sub_003_day_23_data.csv,1,600,,Button-Switch at home,,,,,,,,,,,,,k
3,23,44,A,24.840159297022627,50.385176625206135,1.2420079648511313,0.7914485036778588,B,526.2686659698375,Incorrect,sub_003_day_23_data.csv,0,600,,Button-Switch at home,,,,,,,,,,,,,d
3,23,45,A,43.083100116744205,69.17589996135774,2.1541550058372105,1.0866124956203198,A,3698.866082995664,Correct,sub_003_day_23_data.csv,1,600,,Button-Switch at home,,,,,,,,,,,,,k
3,23,46,A,56.24506381410325,69.20774122150779,2.812253190705162,1.0871126569651617,A,979.0638330159708,Correct,sub_003_day_23_data.csv,1,600,,Button-Switch at home,,,,,,,,,,,,,k
3,23,47,B,31.73755090334455,16.482647115114077,1.5868775451672277,0.2589088154427769,B,2666.599332995247,Correct,sub_003_day_23_data.csv,1,600,,Button-Switch at home,,,,,,,,,,,,,d
3,23,48,A,42.656158937690066,74.26771894154766,2.1328079468845034,1.166594601128188,A,964.7972070379184,Correct,sub_003_day_23_data.csv,1,600,,Button-Switch at home,,,,,,,,,,,,,k
3,23,49,A,30.72912925002059,40.81969470166888,1.5364564625010295,0.6411942649827057,A,1643.8364160130732,Correct,sub_003_day_23_data.csv,1,600,,Button-Switch at home,,,,,,,,,,,,,k
3,23,50,B,62.54159736279011,32.85623170780641,3.1270798681395053,0.5161044807894432,B,599.873083003331,Correct,sub_003_day_23_data.csv,1,600,,Button-Switch at home,,,,,,,,,,,,,d
3,23,51,B,44.76360446851584,33.98397203549799,2.238180223425792,0.5338189844326073,B,1923.058082989883,Correct,sub_003_day_23_data.csv,1,600,,Button-Switch at home,,,,,,,,,,,,,d
3,23,52,A,37.69861476613684,62.77340236879615,1.884930738306842,0.9860422986132305,A,839.100832992699,Correct,sub_003_day_23_data.csv,1,600,,Button-Switch at home,,,,,,,,,,,,,k
3,23,53,A,35.16365788067245,44.03541181726008,1.7581828940336226,0.6917066313145271,A,1561.7922489764169,Correct,sub_003_day_23_data.csv,1,600,,Button-Switch at home,,,,,,,,,,,,,k
3,23,54,A,68.18883164442848,83.43477177722247,3.409441582221424,1.3105903303463151,A,2873.619082965888,Correct,sub_003_day_23_data.csv,1,600,,Button-Switch at home,,,,,,,,,,,,,k
3,23,55,B,64.60359482493635,40.42452690687461,3.2301797412468174,0.634986983777401,B,773.9604570087977,Correct,sub_003_day_23_data.csv,1,600,,Button-Switch at home,,,,,,,,,,,,,d
3,23,56,B,85.52942989707927,66.02251385949543,4.276471494853963,1.0370792225626058,B,1018.0960819707252,Correct,sub_003_day_23_data.csv,1,600,,Button-Switch at home,,,,,,,,,,,,,d
3,23,57,A,48.34795051172273,68.8563260870747,2.4173975255861366,1.0815926409416856,A,1553.8162080338225,Correct,sub_003_day_23_data.csv,1,600,,Button-Switch at home,,,,,,,,,,,,,k
3,23,58,B,65.12221064169054,37.3937825609678,3.2561105320845276,0.5873801629173527,B,675.225123995915,Correct,sub_003_day_23_data.csv,1,600,,Button-Switch at home,,,,,,,,,,,,,d
3,23,59,B,77.9494492250321,49.59535761034336,3.897472461251605,0.7790420556040668,B,794.4169159745798,Correct,sub_003_day_23_data.csv,1,600,,Button-Switch at home,,,,,,,,,,,,,d
3,23,60,B,48.32657637106869,18.850763382715645,2.4163288185534344,0.2961070987884948,B,689.8083750274964,Correct,sub_003_day_23_data.csv,1,600,,Button-Switch at home,,,,,,,,,,,,,d
3,23,61,A,15.377687493893768,42.23715203787173,0.7688843746946884,0.6634596327536648,A,870.7767910091206,Correct,sub_003_day_23_data.csv,1,600,,Button-Switch at home,,,,,,,,,,,,,k
3,23,62,B,55.547611951019526,23.727616856755745,2.7773805975509767,0.372712534021886,B,537.570582004264,Correct,sub_003_day_23_data.csv,1,600,,Button-Switch at home,,,,,,,,,,,,,d
3,23,63,B,61.96147341858916,47.179886582446414,3.098073670929458,0.7410999254230666,B,1034.2264579958282,Correct,sub_003_day_23_data.csv,1,600,,Button-Switch at home,,,,,,,,,,,,,d
3,23,64,B,44.81267345782248,31.05770342968112,2.240633672891124,0.4878532646602836,B,2052.8617500094697,Correct,sub_003_day_23_data.csv,1,600,,Button-Switch at home,,,,,,,,,,,,,d
3,23,65,A,64.90856209913838,80.01550783018276,3.245428104956919,1.2568806578627936,A,724.2289990535937,Correct,sub_003_day_23_data.csv,1,600,,Button-Switch at home,,,,,,,,,,,,,k
3,23,66,B,44.995106339090256,15.25142660530362,2.249755316954513,0.2395688488999288,B,816.4857489755377,Correct,sub_003_day_23_data.csv,1,600,,Button-Switch at home,,,,,,,,,,,,,d
3,23,67,B,51.91989249312387,39.49808462035005,2.5959946246561936,0.6204344623707985,B,534.9418330006301,Correct,sub_003_day_23_data.csv,1,600,,Button-Switch at home,,,,,,,,,,,,,d
3,23,68,B,61.00635948630433,47.20999572271711,3.0503179743152167,0.7415728786924682,B,500.67995698191226,Correct,sub_003_day_23_data.csv,1,600,,Button-Switch at home,,,,,,,,,,,,,d
3,23,69,B,65.02335590925628,39.71092451114165,3.251167795462814,0.6237777435573072,B,417.4982489785179,Correct,sub_003_day_23_data.csv,1,600,,Button-Switch at home,,,,,,,,,,,,,d
3,23,70,A,29.07568751769933,52.98027927226107,1.4537843758849665,0.8322122807343548,A,795.8006250555627,Correct,sub_003_day_23_data.csv,1,600,,Button-Switch at home,,,,,,,,,,,,,k
3,23,71,B,69.41625895277281,46.2368380071318,3.4708129476386405,0.7262865530421331,B,403.0806659720838,Correct,sub_003_day_23_data.csv,1,600,,Button-Switch at home,,,,,,,,,,,,,d
3,23,72,B,71.1201391071529,39.99362453943943,3.556006955357645,0.6282183852176568,B,1201.7277490231209,Correct,sub_003_day_23_data.csv,1,600,,Button-Switch at home,,,,,,,,,,,,,d
3,23,73,A,59.620848305175,85.68735982246815,2.98104241525875,1.3459739006188556,A,647.4037489970215,Correct,sub_003_day_23_data.csv,1,600,,Button-Switch at home,,,,,,,,,,,,,k
3,23,74,B,43.239787880566546,22.415961566800544,2.1619893940283275,0.3521091009070586,B,501.6570820007473,Correct,sub_003_day_23_data.csv,1,600,,Button-Switch at home,,,,,,,,,,,,,d
3,23,75,B,32.70550549624637,16.9403087067378,1.6352752748123185,0.2660977469131534,B,513.5739999823272,Correct,sub_003_day_23_data.csv,1,600,,Button-Switch at home,,,,,,,,,,,,,d
3,23,76,A,15.371973545173844,34.207311057433884,0.7685986772586922,0.537327185585476,A,719.5984160061926,Correct,sub_003_day_23_data.csv,1,600,,Button-Switch at home,,,,,,,,,,,,,k
3,23,77,B,56.34257177550633,34.28457370088733,2.8171285887753164,0.5385408243508273,B,621.6617070022039,Correct,sub_003_day_23_data.csv,1,600,,Button-Switch at home,,,,,,,,,,,,,d
3,23,78,A,49.71071890210899,74.6279904464269,2.4855359451054495,1.1722537326933202,A,874.45091601694,Correct,sub_003_day_23_data.csv,1,600,,Button-Switch at home,,,,,,,,,,,,,k
3,23,79,B,81.4089440012533,52.67735307579332,4.070447200062665,0.8274539271673398,B,853.321706992574,Correct,sub_003_day_23_data.csv,1,600,,Button-Switch at home,,,,,,,,,,,,,d
3,23,80,B,71.287005934752,53.41637828585557,3.5643502967376004,0.8390625080210861,B,513.3531659957953,Correct,sub_003_day_23_data.csv,1,600,,Button-Switch at home,,,,,,,,,,,,,d
3,23,81,B,31.67791990364237,12.869608412987574,1.5838959951821183,0.2021553362240958,B,1003.303166013211,Correct,sub_003_day_23_data.csv,1,600,,Button-Switch at home,,,,,,,,,,,,,d
3,23,82,A,40.16875742724754,67.51371497622867,2.008437871362377,1.060502954929376,A,727.9681660002097,Correct,sub_003_day_23_data.csv,1,600,,Button-Switch at home,,,,,,,,,,,,,k
3,23,83,A,54.29989445543168,78.36546224445961,2.7149947227715843,1.2309618024118132,A,581.0013330192305,Correct,sub_003_day_23_data.csv,1,600,,Button-Switch at home,,,,,,,,,,,,,k
3,23,84,A,37.3489815935674,57.71170646151029,1.86744907967837,0.9065333652280568,A,927.9214999987744,Correct,sub_003_day_23_data.csv,1,600,,Button-Switch at home,,,,,,,,,,,,,k
3,23,85,A,32.47441647202116,63.923077639909806,1.6237208236010583,1.004101355541953,A,493.1109989993274,Correct,sub_003_day_23_data.csv,1,600,,Button-Switch at home,,,,,,,,,,,,,k
3,23,86,A,24.495965339704185,39.16670835971369,1.224798266985209,0.6152292162408523,A,447.7193750208244,Correct,sub_003_day_23_data.csv,1,600,,Button-Switch at home,,,,,,,,,,,,,k
3,23,87,A,40.97902096244828,54.99978536767682,2.0489510481224142,0.8639346083005445,A,833.7429570383392,Correct,sub_003_day_23_data.csv,1,600,,Button-Switch at home,,,,,,,,,,,,,k
3,23,88,B,67.61898051715268,47.37372453248277,3.380949025857634,0.7441447248221721,B,527.2608330124058,Correct,sub_003_day_23_data.csv,1,600,,Button-Switch at home,,,,,,,,,,,,,d
3,23,89,B,44.201893194997545,22.979094384684156,2.210094659749877,0.3609547705253511,B,681.6167490324005,Correct,sub_003_day_23_data.csv,1,600,,Button-Switch at home,,,,,,,,,,,,,d
3,23,90,A,56.42988790310145,67.2730213499308,2.8214943951550726,1.0567221482886595,A,709.926915995311,Correct,sub_003_day_23_data.csv,1,600,,Button-Switch at home,,,,,,,,,,,,,k
3,23,91,B,42.265075869217426,21.891883051220752,2.113253793460871,0.3438768948348101,B,486.9219990214333,Correct,sub_003_day_23_data.csv,1,600,,Button-Switch at home,,,,,,,,,,,,,d
3,23,92,B,67.93638180315493,45.83201292817269,3.3968190901577464,0.7199275755718988,B,730.507290980313,Correct,sub_003_day_23_data.csv,1,600,,Button-Switch at home,,,,,,,,,,,,,d
3,23,93,B,32.4450622257119,11.343170901708715,1.622253111285595,0.178178111866108,B,614.6215000189841,Correct,sub_003_day_23_data.csv,1,600,,Button-Switch at home,,,,,,,,,,,,,d
3,23,94,A,30.67907879338282,59.014593067361915,1.533953939669141,0.9269990601750766,A,886.9305829866789,Correct,sub_003_day_23_data.csv,1,600,,Button-Switch at home,,,,,,,,,,,,,k
3,23,95,A,44.7651785508734,57.82536388423745,2.23825892754367,0.9083186918493844,B,2590.4182490194216,Incorrect,sub_003_day_23_data.csv,0,600,,Button-Switch at home,,,,,,,,,,,,,d
3,23,96,A,37.05761202412713,44.74052533746288,1.8528806012063568,0.702782528589607,A,897.8803740465082,Correct,sub_003_day_23_data.csv,1,600,,Button-Switch at home,,,,,,,,,,,,,k
3,23,97,B,59.21754960198057,52.16906160881761,2.9608774800990285,0.8194697034746735,A,585.0163750001229,Incorrect,sub_003_day_23_data.csv,0,600,,Button-Switch at home,,,,,,,,,,,,,k
3,23,98,A,23.591368811096803,49.758269475216736,1.17956844055484,0.7816010691934109,A,1815.0852909893729,Correct,sub_003_day_23_data.csv,1,600,,Button-Switch at home,,,,,,,,,,,,,k
3,23,99,A,46.28925303676845,72.53948911072027,2.3144626518384226,1.1394476304269778,A,984.4638319918886,Correct,sub_003_day_23_data.csv,1,600,,Button-Switch at home,,,,,,,,,,,,,k
3,23,100,A,43.08251184729026,54.96873087243531,2.1541255923645135,0.8634468054299863,B,1092.9390409728512,Incorrect,sub_003_day_23_data.csv,0,600,,Button-Switch at home,,,,,,,,,,,,,d
3,23,101,A,46.085054597844675,69.03319509266306,2.3042527298922337,1.0843708927847062,A,791.5254579856992,Correct,sub_003_day_23_data.csv,1,600,,Button-Switch at home,,,,,,,,,,,,,k
3,23,102,A,25.946418168826327,36.43383862120184,1.2973209084413162,0.5723013987722189,A,642.444791039452,Correct,sub_003_day_23_data.csv,1,600,,Button-Switch at home,,,,,,,,,,,,,k
3,23,103,A,41.663742911675776,59.27864506540218,2.0831871455837887,0.9311467792611215,A,1043.4022070257924,Correct,sub_003_day_23_data.csv,1,600,,Button-Switch at home,,,,,,,,,,,,,k
3,23,104,B,60.64043833596787,52.189600441849926,3.0320219167983935,0.8197923267095117,B,494.96799899498,Correct,sub_003_day_23_data.csv,1,600,,Button-Switch at home,,,,,,,,,,,,,d
3,23,105,B,64.5785550660385,31.92273697685679,3.2289277533019254,0.5014411798448626,B,575.1300829579122,Correct,sub_003_day_23_data.csv,1,600,,Button-Switch at home,,,,,,,,,,,,,d
3,23,106,A,51.94289359894664,82.69560288507805,2.597144679947332,1.2989794925397005,A,684.5900819753297,Correct,sub_003_day_23_data.csv,1,600,,Button-Switch at home,,,,,,,,,,,,,k
3,23,107,B,78.3918393381145,49.13203390714681,3.919591966905725,0.7717641838930853,B,1286.71812399989,Correct,sub_003_day_23_data.csv,1,600,,Button-Switch at home,,,,,,,,,,,,,d
3,23,108,A,43.12874274521116,63.66254319075557,2.156437137260558,1.0000088899846031,A,1014.4579579937272,Correct,sub_003_day_23_data.csv,1,600,,Button-Switch at home,,,,,,,,,,,,,k
3,23,109,B,63.12295067108078,34.777981464578325,3.156147533554039,0.5462912553790062,B,485.3877070127055,Correct,sub_003_day_23_data.csv,1,600,,Button-Switch at home,,,,,,,,,,,,,d
3,23,110,A,33.066594642215655,56.29108404100385,1.6533297321107827,0.8842182804291167,A,876.6152909956872,Correct,sub_003_day_23_data.csv,1,600,,Button-Switch at home,,,,,,,,,,,,,k
3,23,111,A,42.04944664432062,54.165253240410365,2.102472332216031,0.8508258082995196,A,1752.304541005287,Correct,sub_003_day_23_data.csv,1,600,,Button-Switch at home,,,,,,,,,,,,,k
3,23,112,B,62.12947154456644,51.017875064863254,3.1064735772283223,0.8013869075276814,A,599.8279160121456,Incorrect,sub_003_day_23_data.csv,0,600,,Button-Switch at home,,,,,,,,,,,,,k
3,23,113,A,36.86701497775855,70.1661757018274,1.8433507488879275,1.102167710576758,A,1029.823665972799,Correct,sub_003_day_23_data.csv,1,600,,Button-Switch at home,,,,,,,,,,,,,k
3,23,114,A,58.68938694819949,70.33810233229089,2.9344693474099746,1.1048683277728608,A,1344.4290820043534,Correct,sub_003_day_23_data.csv,1,600,,Button-Switch at home,,,,,,,,,,,,,k
3,23,115,A,20.02145656290435,42.90166728731662,1.0010728281452177,0.6738978138829371,A,628.6923330044374,Correct,sub_003_day_23_data.csv,1,600,,Button-Switch at home,,,,,,,,,,,,,k
3,23,116,A,59.08485984883061,69.01350216822169,2.9542429924415305,1.0840615570509426,A,1151.770333002787,Correct,sub_003_day_23_data.csv,1,600,,Button-Switch at home,,,,,,,,,,,,,k
3,23,117,A,21.67056749562896,36.7466274340154,1.083528374781448,0.5772146739545196,A,1115.2334160287865,Correct,sub_003_day_23_data.csv,1,600,,Button-Switch at home,,,,,,,,,,,,,k
3,23,118,A,61.5434547554446,78.3860024802834,3.07717273777223,1.231284447681648,A,812.5704579870217,Correct,sub_003_day_23_data.csv,1,600,,Button-Switch at home,,,,,,,,,,,,,k
3,23,119,B,54.27770750975107,29.759260424102575,2.713885375487554,0.4674573696231306,B,1033.11241598567,Correct,sub_003_day_23_data.csv,1,600,,Button-Switch at home,,,,,,,,,,,,,d
3,23,120,B,81.02530630270459,66.61826513149155,4.05126531513523,1.0464372616599549,B,3236.5275410120375,Correct,sub_003_day_23_data.csv,1,600,,Button-Switch at home,,,,,,,,,,,,,d
3,23,121,A,38.96473512397442,55.69564870995564,1.9482367561987213,0.8748652041205724,A,1115.8037909772247,Correct,sub_003_day_23_data.csv,1,600,,Button-Switch at home,,,,,,,,,,,,,k
3,23,122,B,67.43136822510183,56.43009343065077,3.3715684112550917,0.8864018348155904,B,668.6393329873681,Correct,sub_003_day_23_data.csv,1,600,,Button-Switch at home,,,,,,,,,,,,,d
3,23,123,A,33.92267390822128,64.15738821301757,1.6961336954110635,1.0077818974176218,A,1192.9184580221772,Correct,sub_003_day_23_data.csv,1,600,,Button-Switch at home,,,,,,,,,,,,,k
3,23,124,A,57.52344112099965,66.76019753168536,2.876172056049983,1.048666730588731,B,1564.5026660058647,Incorrect,sub_003_day_23_data.csv,0,600,,Button-Switch at home,,,,,,,,,,,,,d
3,23,125,B,60.68871500776722,45.08528191796645,3.034435750388361,0.7081979522925407,B,1134.1640410246328,Correct,sub_003_day_23_data.csv,1,600,,Button-Switch at home,,,,,,,,,,,,,d
3,23,126,A,19.50519941373817,36.594527559030624,0.9752599706869084,0.5748254947051992,A,642.7275410387665,Correct,sub_003_day_23_data.csv,1,600,,Button-Switch at home,,,,,,,,,,,,,k
3,23,127,B,54.52921485472227,47.42176573242938,2.726460742736114,0.7448993542262817,B,1368.9808739582077,Correct,sub_003_day_23_data.csv,1,600,,Button-Switch at home,,,,,,,,,,,,,d
3,23,128,B,37.42527147743111,13.724577733958668,1.8712635738715555,0.215585162913133,B,1376.94179097889,Correct,sub_003_day_23_data.csv,1,600,,Button-Switch at home,,,,,,,,,,,,,d
3,23,129,B,65.65801043712386,53.836882410945385,3.282900521856193,0.8456677713720178,B,818.080083001405,Correct,sub_003_day_23_data.csv,1,600,,Button-Switch at home,,,,,,,,,,,,,d
3,23,130,A,36.42249919312605,54.046938952518126,1.8211249596563024,0.8489673318112347,A,1661.4722909871489,Correct,sub_003_day_23_data.csv,1,600,,Button-Switch at home,,,,,,,,,,,,,k
3,23,131,B,88.62072685728094,67.29953037520127,4.431036342864047,1.057138551083877,B,1402.104874025099,Correct,sub_003_day_23_data.csv,1,600,,Button-Switch at home,,,,,,,,,,,,,d
3,23,132,B,58.17846655910155,32.55971060140298,2.9089233279550775,0.5114467381418866,B,981.275915983133,Correct,sub_003_day_23_data.csv,1,600,,Button-Switch at home,,,,,,,,,,,,,d
3,23,133,B,55.07432264898904,45.253223725511525,2.753716132449452,0.7108359760366117,B,1455.8047489845194,Correct,sub_003_day_23_data.csv,1,600,,Button-Switch at home,,,,,,,,,,,,,d
3,23,134,B,30.366631106118163,14.52272353863793,1.5183315553059082,0.2281224078955024,B,774.0255409735255,Correct,sub_003_day_23_data.csv,1,600,,Button-Switch at home,,,,,,,,,,,,,d
3,23,135,B,45.29288765663226,36.46148923063357,2.264644382831613,0.5727357335295088,B,907.5092489947564,Correct,sub_003_day_23_data.csv,1,600,,Button-Switch at home,,,,,,,,,,,,,d
3,23,136,B,61.06004162583134,47.10428899296116,3.053002081291567,0.7399124412642866,B,1141.8230829876848,Correct,sub_003_day_23_data.csv,1,600,,Button-Switch at home,,,,,,,,,,,,,d
3,23,137,B,47.21341182623051,23.933607987410326,2.360670591311526,0.3759482351357314,B,682.9084160272032,Correct,sub_003_day_23_data.csv,1,600,,Button-Switch at home,,,,,,,,,,,,,d
3,23,138,A,49.42445950632117,56.30634050600979,2.4712229753160586,0.8844579284210288,B,1235.4716659756375,Incorrect,sub_003_day_23_data.csv,0,600,,Button-Switch at home,,,,,,,,,,,,,d
3,23,139,A,50.25274222025674,57.54251174756816,2.512637111012838,0.9038756608763228,A,2570.844498986844,Correct,sub_003_day_23_data.csv,1,600,,Button-Switch at home,,,,,,,,,,,,,k
3,23,140,B,52.26965066360621,30.059759739175625,2.6134825331803104,0.4721776018263419,B,1047.100333031267,Correct,sub_003_day_23_data.csv,1,600,,Button-Switch at home,,,,,,,,,,,,,d
3,23,141,A,55.295849303064514,76.53008807037446,2.764792465153226,1.2021318123023417,A,913.0758750252426,Correct,sub_003_day_23_data.csv,1,600,,Button-Switch at home,,,,,,,,,,,,,k
3,23,142,B,62.12622675124768,54.30575334514599,3.106311337562384,0.8530327787838499,B,1687.4270829721354,Correct,sub_003_day_23_data.csv,1,600,,Button-Switch at home,,,,,,,,,,,,,d
3,23,143,A,48.53791644048744,67.29982956996159,2.4268958220243717,1.0571432508241825,A,1894.1986249992624,Correct,sub_003_day_23_data.csv,1,600,,Button-Switch at home,,,,,,,,,,,,,k
3,23,144,A,58.14651436440632,67.55992357963844,2.9073257182203163,1.0612287979743995,A,1074.3522489792667,Correct,sub_003_day_23_data.csv,1,600,,Button-Switch at home,,,,,,,,,,,,,k
3,23,145,B,69.32179208168517,50.4684312611284,3.466089604084259,0.7927562644408123,B,750.9047909989022,Correct,sub_003_day_23_data.csv,1,600,,Button-Switch at home,,,,,,,,,,,,,d
3,23,146,B,37.28359538875033,20.406511454771778,1.864179769437516,0.3205447323585348,B,1211.1152909928933,Correct,sub_003_day_23_data.csv,1,600,,Button-Switch at home,,,,,,,,,,,,,d
3,23,147,B,51.992956463118205,35.40043379240015,2.5996478231559106,0.5560687136804809,B,595.5030409968458,Correct,sub_003_day_23_data.csv,1,600,,Button-Switch at home,,,,,,,,,,,,,d
3,23,148,A,38.876711631501415,63.65734224882002,1.9438355815750707,0.9999271937797208,A,690.5791250173934,Correct,sub_003_day_23_data.csv,1,600,,Button-Switch at home,,,,,,,,,,,,,k
3,23,149,A,26.36458210574632,51.500987655739245,1.318229105287316,0.8089756223594452,A,560.2769579854794,Correct,sub_003_day_23_data.csv,1,600,,Button-Switch at home,,,,,,,,,,,,,k
3,23,150,B,52.82136743688564,31.291419253488264,2.641068371844282,0.4915244642357847,B,586.9853740441613,Correct,sub_003_day_23_data.csv,1,600,,Button-Switch at home,,,,,,,,,,,,,d
3,23,151,B,56.09958505456589,28.60780546808158,2.804979252728294,0.449370357469255,B,484.63849996915087,Correct,sub_003_day_23_data.csv,1,600,,Button-Switch at home,,,,,,,,,,,,,d
3,23,152,A,38.92390587109732,52.23084696949764,1.946195293554866,0.8204402256507325,A,891.9261660194024,Correct,sub_003_day_23_data.csv,1,600,,Button-Switch at home,,,,,,,,,,,,,k
3,23,153,B,47.4019900863418,39.350570942260504,2.37009950431709,0.6181173229338479,B,1272.0102909952402,Correct,sub_003_day_23_data.csv,1,600,,Button-Switch at home,,,,,,,,,,,,,d
3,23,154,B,42.650678146905435,29.25244731570843,2.1325339073452714,0.4594963679327603,B,465.3280829661526,Correct,sub_003_day_23_data.csv,1,600,,Button-Switch at home,,,,,,,,,,,,,d
3,23,155,A,44.34607310054858,65.87966244498453,2.217303655027429,1.034835317790694,A,774.8959989985451,Correct,sub_003_day_23_data.csv,1,600,,Button-Switch at home,,,,,,,,,,,,,k
3,23,156,A,28.65277691434141,42.520302406514666,1.4326388457170705,0.6679073483436144,A,769.9910829542205,Correct,sub_003_day_23_data.csv,1,600,,Button-Switch at home,,,,,,,,,,,,,k
3,23,157,A,65.85397099104996,84.85829872731462,3.292698549552498,1.3329510393892985,A,631.8028750247322,Correct,sub_003_day_23_data.csv,1,600,,Button-Switch at home,,,,,,,,,,,,,k
3,23,158,B,66.65543996181219,50.26251332411161,3.3327719980906094,0.7895217130499406,B,676.7599569866434,Correct,sub_003_day_23_data.csv,1,600,,Button-Switch at home,,,,,,,,,,,,,d
3,23,159,A,54.14567042036593,65.36918972776198,2.707283521018297,1.026816831099272,A,2091.5543329901993,Correct,sub_003_day_23_data.csv,1,600,,Button-Switch at home,,,,,,,,,,,,,k
3,23,160,A,39.83798090518467,58.91078915239144,1.9918990452592336,0.9253685120916512,A,557.2014159988612,Correct,sub_003_day_23_data.csv,1,600,,Button-Switch at home,,,,,,,,,,,,,k
3,23,161,B,78.408596521367,52.25562065355281,3.9204298260683506,0.8208293697698829,B,634.0869989944622,Correct,sub_003_day_23_data.csv,1,600,,Button-Switch at home,,,,,,,,,,,,,d
3,23,162,A,35.18747696492955,54.22009475926797,1.7593738482464776,0.8516872568632935,A,739.3926660297439,Correct,sub_003_day_23_data.csv,1,600,,Button-Switch at home,,,,,,,,,,,,,k
3,23,163,A,27.091211212660312,49.387796698616995,1.3545605606330156,0.775781696426807,A,1596.6416239971295,Correct,sub_003_day_23_data.csv,1,600,,Button-Switch at home,,,,,,,,,,,,,k
3,23,164,A,19.271300652314945,33.752427507008896,0.9635650326157472,0.530181891484206,A,3119.2074580467306,Correct,sub_003_day_23_data.csv,1,600,,Button-Switch at home,,,,,,,,,,,,,k
3,23,165,B,41.60333496037702,24.123949623244823,2.080166748018851,0.378938114559781,B,1664.724791015033,Correct,sub_003_day_23_data.csv,1,600,,Button-Switch at home,,,,,,,,,,,,,d
3,23,166,A,45.41332200086114,55.85211790158802,2.2706661000430572,0.8773230164352993,A,1380.429123993963,Correct,sub_003_day_23_data.csv,1,600,,Button-Switch at home,,,,,,,,,,,,,k
3,23,167,A,27.510950602553077,44.55333955827001,1.375547530127654,0.6998422212457629,A,821.1355829844251,Correct,sub_003_day_23_data.csv,1,600,,Button-Switch at home,,,,,,,,,,,,,k
3,23,168,B,68.05177241110658,36.65134227175307,3.402588620555329,0.5757179381257225,B,822.7919990313239,Correct,sub_003_day_23_data.csv,1,600,,Button-Switch at home,,,,,,,,,,,,,d
3,23,169,B,43.41761190099017,29.86359477838877,2.1708805950495083,0.4690962498278432,B,1328.5162079846486,Correct,sub_003_day_23_data.csv,1,600,,Button-Switch at home,,,,,,,,,,,,,d
3,23,170,A,50.71515856575385,77.70822547265044,2.5357579282876928,1.2206379513418892,A,710.35991597455,Correct,sub_003_day_23_data.csv,1,600,,Button-Switch at home,,,,,,,,,,,,,k
3,23,171,A,62.659276899767306,84.49532518984768,3.132963844988365,1.3272494643955304,A,631.0514580109157,Correct,sub_003_day_23_data.csv,1,600,,Button-Switch at home,,,,,,,,,,,,,k
3,23,172,B,76.66620789709329,63.998714923486276,3.833310394854664,1.0052894632140597,B,1361.770999035798,Correct,sub_003_day_23_data.csv,1,600,,Button-Switch at home,,,,,,,,,,,,,d
3,23,173,B,36.52881715914098,20.62496454006043,1.8264408579570488,0.3239761853980192,B,945.2911249827594,Correct,sub_003_day_23_data.csv,1,600,,Button-Switch at home,,,,,,,,,,,,,d
3,23,174,A,60.12808942310104,72.33115696757032,3.006404471155052,1.1361751567748457,A,1042.0273329946212,Correct,sub_003_day_23_data.csv,1,600,,Button-Switch at home,,,,,,,,,,,,,k
3,23,175,B,54.74786524168755,46.09584502673179,2.7373932620843777,0.724071840484971,B,629.6450829831883,Correct,sub_003_day_23_data.csv,1,600,,Button-Switch at home,,,,,,,,,,,,,d
3,23,176,A,41.671292614389365,49.1320345666731,2.083564630719468,0.7717641942528999,B,737.8577499766834,Incorrect,sub_003_day_23_data.csv,0,600,,Button-Switch at home,,,,,,,,,,,,,d
3,23,177,A,60.1274930554112,84.58390595863243,3.00637465277056,1.3286408878578475,B,679.5529579976574,Incorrect,sub_003_day_23_data.csv,0,600,,Button-Switch at home,,,,,,,,,,,,,d
3,23,178,A,54.79857247824558,64.16415352928878,2.739928623912279,1.0078881667571062,A,1859.757624042686,Correct,sub_003_day_23_data.csv,1,600,,Button-Switch at home,,,,,,,,,,,,,k
3,23,179,B,43.20358595269245,35.66634416039313,2.160179297634622,0.5602456239734813,B,1440.382040978875,Correct,sub_003_day_23_data.csv,1,600,,Button-Switch at home,,,,,,,,,,,,,d
3,23,180,B,46.320444553099634,18.482186000146275,2.316022227654982,0.2903174988016982,B,556.4062499906868,Correct,sub_003_day_23_data.csv,1,600,,Button-Switch at home,,,,,,,,,,,,,d
3,23,181,A,39.41980605037886,51.90948788889614,1.970990302518943,0.8153923290168225,A,1323.3845000504516,Correct,sub_003_day_23_data.csv,1,600,,Button-Switch at home,,,,,,,,,,,,,k
3,23,182,B,78.957868930142,57.33294231701056,3.9478934465071,0.9005837519590388,B,807.7452910365537,Correct,sub_003_day_23_data.csv,1,600,,Button-Switch at home,,,,,,,,,,,,,d
3,23,183,B,77.20797560433172,63.5185073008105,3.8603987802165864,0.9977463795160794,B,508.9284990099259,Correct,sub_003_day_23_data.csv,1,600,,Button-Switch at home,,,,,,,,,,,,,d
3,23,184,B,54.478797522162786,41.602555526604064,2.7239398761081395,0.6534914140647039,B,519.1439160262235,Correct,sub_003_day_23_data.csv,1,600,,Button-Switch at home,,,,,,,,,,,,,d
3,23,185,A,47.43319593261468,55.180290759377186,2.371659796630734,0.8667699803630406,B,2884.206374990754,Incorrect,sub_003_day_23_data.csv,0,600,,Button-Switch at home,,,,,,,,,,,,,d
3,23,186,A,19.898996073807147,34.4063712838373,0.9949498036903576,0.5404540163099305,A,611.6084989625961,Correct,sub_003_day_23_data.csv,1,600,,Button-Switch at home,,,,,,,,,,,,,k
3,23,187,B,63.99260263706029,52.13289631273366,3.1996301318530143,0.8189016203322126,B,792.7715830155648,Correct,sub_003_day_23_data.csv,1,600,,Button-Switch at home,,,,,,,,,,,,,d
3,23,188,B,57.568822385175395,31.14063596827688,2.8784411192587696,0.4891559659302635,B,645.1592909870669,Correct,sub_003_day_23_data.csv,1,600,,Button-Switch at home,,,,,,,,,,,,,d
3,23,189,B,61.25325908029486,39.82554316849682,3.0626629540147428,0.6255781692168638,B,441.1705820239149,Correct,sub_003_day_23_data.csv,1,600,,Button-Switch at home,,,,,,,,,,,,,d
3,23,190,B,55.39665454862966,35.475022468886365,2.769832727431483,0.5572403498709313,B,549.3940410087816,Correct,sub_003_day_23_data.csv,1,600,,Button-Switch at home,,,,,,,,,,,,,d
3,23,191,A,67.50466907346052,80.61564675198328,3.3752334536730255,1.266307618002103,A,579.6312909806147,Correct,sub_003_day_23_data.csv,1,600,,Button-Switch at home,,,,,,,,,,,,,k
3,23,192,B,75.07740292823874,56.70621290744016,3.753870146411937,0.8907391094145636,B,518.4124989900738,Correct,sub_003_day_23_data.csv,1,600,,Button-Switch at home,,,,,,,,,,,,,d
3,23,193,B,60.43858648528142,33.19929136171322,3.021929324264071,0.5214932492317267,B,462.7974579925649,Correct,sub_003_day_23_data.csv,1,600,,Button-Switch at home,,,,,,,,,,,,,d
3,23,194,B,65.58671675784964,53.84809598224173,3.2793358378924826,0.8458439137380434,B,530.5640409933403,Correct,sub_003_day_23_data.csv,1,600,,Button-Switch at home,,,,,,,,,,,,,d
3,23,195,B,48.49982020115027,28.861794699954316,2.4249910100575134,0.4533600109939665,B,418.48354099784046,Correct,sub_003_day_23_data.csv,1,600,,Button-Switch at home,,,,,,,,,,,,,d
3,23,196,A,66.8503280046634,82.60160536755883,3.34251640023317,1.2975029829872302,A,586.6901240078732,Correct,sub_003_day_23_data.csv,1,600,,Button-Switch at home,,,,,,,,,,,,,k
3,23,197,B,39.22482864013366,30.182670839571227,1.961241432006683,0.4741082848765791,B,1487.48270701617,Correct,sub_003_day_23_data.csv,1,600,,Button-Switch at home,,,,,,,,,,,,,d
3,23,198,A,46.028485822373554,61.084443851856726,2.301424291118678,0.9595122002680564,A,1101.6896659857591,Correct,sub_003_day_23_data.csv,1,600,,Button-Switch at home,,,,,,,,,,,,,k
3,23,199,A,45.83070894172772,60.30787235137255,2.2915354470863862,0.947313843663515,A,675.3091240534559,Correct,sub_003_day_23_data.csv,1,600,,Button-Switch at home,,,,,,,,,,,,,k
3,23,200,B,30.86576680955636,14.953984124981908,1.5432883404778182,0.2348966333447077,B,555.0661240122281,Correct,sub_003_day_23_data.csv,1,600,,Button-Switch at home,,,,,,,,,,,,,d
3,23,201,A,33.29996027585017,41.28023429729983,1.6649980137925084,0.6484284040343128,A,849.4408329715952,Correct,sub_003_day_23_data.csv,1,600,,Button-Switch at home,,,,,,,,,,,,,k
3,23,202,A,49.977025387774184,66.57513876803432,2.4988512693887093,1.0457598343268883,A,582.6767490361817,Correct,sub_003_day_23_data.csv,1,600,,Button-Switch at home,,,,,,,,,,,,,k
3,23,203,B,63.67738194469259,38.80880842937194,3.1838690972346297,0.6096073372814427,A,598.4911660198122,Incorrect,sub_003_day_23_data.csv,0,600,,Button-Switch at home,,,,,,,,,,,,,k
3,23,204,A,63.36253698221295,76.01465896442785,3.1681268491106476,1.1940354708389,A,730.1957070012577,Correct,sub_003_day_23_data.csv,1,600,,Button-Switch at home,,,,,,,,,,,,,k
3,23,205,A,14.050519648584622,36.73793995043372,0.7025259824292311,0.5770782112815277,A,748.1453740037978,Correct,sub_003_day_23_data.csv,1,600,,Button-Switch at home,,,,,,,,,,,,,k
3,23,206,B,38.95179560646886,22.0774367252965,1.9475897803234432,0.3467915651314249,B,683.8137070299126,Correct,sub_003_day_23_data.csv,1,600,,Button-Switch at home,,,,,,,,,,,,,d
3,23,207,B,34.90478359163799,17.29495357556581,1.7452391795818991,0.2716684954858703,B,616.0992489894852,Correct,sub_003_day_23_data.csv,1,600,,Button-Switch at home,,,,,,,,,,,,,d
3,23,208,B,39.01461397524984,12.603364991941085,1.9507306987624924,0.1979731943459644,B,722.5252910284325,Correct,sub_003_day_23_data.csv,1,600,,Button-Switch at home,,,,,,,,,,,,,d
3,23,209,A,63.21113870369945,85.79399290288772,3.1605569351849727,1.3476488891292344,A,618.7519579543732,Correct,sub_003_day_23_data.csv,1,600,,Button-Switch at home,,,,,,,,,,,,,k
3,23,210,A,18.736342843791768,35.2013160395729,0.9368171421895884,0.5529409793330738,A,987.214831984602,Correct,sub_003_day_23_data.csv,1,600,,Button-Switch at home,,,,,,,,,,,,,k
3,23,211,B,62.42093737302978,42.26618957682186,3.1210468686514887,0.6639157533488852,A,1491.151581984013,Incorrect,sub_003_day_23_data.csv,0,600,,Button-Switch at home,,,,,,,,,,,,,k
3,23,212,A,24.18369559981114,39.032848672284096,1.209184779990557,0.6131265531876492,A,993.761916004587,Correct,sub_003_day_23_data.csv,1,600,,Button-Switch at home,,,,,,,,,,,,,k
3,23,213,B,42.99384611454724,19.337105746265824,2.149692305727362,0.3037465467707884,B,1584.908749035094,Correct,sub_003_day_23_data.csv,1,600,,Button-Switch at home,,,,,,,,,,,,,d
3,23,214,A,52.23364822023049,71.07121579313102,2.611682411011525,1.1163840470869764,A,2378.4213740145788,Correct,sub_003_day_23_data.csv,1,600,,Button-Switch at home,,,,,,,,,,,,,k
3,23,215,B,64.3188663340415,36.975533216198755,3.215943316702075,0.5808103175728769,B,3094.1979580093175,Correct,sub_003_day_23_data.csv,1,600,,Button-Switch at home,,,,,,,,,,,,,d
3,23,216,A,59.07432662584672,68.23067448234737,2.953716331292336,1.0717649285160953,A,1838.1807489786297,Correct,sub_003_day_23_data.csv,1,600,,Button-Switch at home,,,,,,,,,,,,,k
3,23,217,B,85.58762338821572,67.93294806192765,4.279381169410786,1.0670882528402443,A,682.617874990683,Incorrect,sub_003_day_23_data.csv,0,600,,Button-Switch at home,,,,,,,,,,,,,k
3,23,218,B,35.958815227229266,23.80635911071572,1.797940761361463,0.3739494144547246,B,1055.9112910414117,Correct,sub_003_day_23_data.csv,1,600,,Button-Switch at home,,,,,,,,,,,,,d
3,23,219,A,20.57226565775293,36.96072646435037,1.0286132828876464,0.5805777336587249,A,804.2964159976691,Correct,sub_003_day_23_data.csv,1,600,,Button-Switch at home,,,,,,,,,,,,,k
3,23,220,B,66.71840756688226,53.44985987002249,3.335920378344113,0.8395884355153328,B,2600.237123959232,Correct,sub_003_day_23_data.csv,1,600,,Button-Switch at home,,,,,,,,,,,,,d
3,23,221,B,75.01316834349595,63.831384892768504,3.750658417174798,1.0026610492379202,B,668.1337080080993,Correct,sub_003_day_23_data.csv,1,600,,Button-Switch at home,,,,,,,,,,,,,d
3,23,222,A,48.10597497410289,60.62513301054333,2.4052987487051443,0.9522973624441348,A,1311.1029160209,Correct,sub_003_day_23_data.csv,1,600,,Button-Switch at home,,,,,,,,,,,,,k
3,23,223,A,42.54190512329722,55.2455717841434,2.127095256164861,0.8677954123021623,A,743.8969580107369,Correct,sub_003_day_23_data.csv,1,600,,Button-Switch at home,,,,,,,,,,,,,k
3,23,224,A,47.01434824822452,71.20868738017239,2.350717412411226,1.118543445726609,A,615.4621239984408,Correct,sub_003_day_23_data.csv,1,600,,Button-Switch at home,,,,,,,,,,,,,k
3,23,225,A,36.70948518867018,63.715551896948206,1.835474259433509,1.0008415487943585,A,543.8502490287647,Correct,sub_003_day_23_data.csv,1,600,,Button-Switch at home,,,,,,,,,,,,,k
3,23,226,A,11.29025940190236,30.50806741604706,0.564512970095118,0.479219602347378,A,2314.435708045494,Correct,sub_003_day_23_data.csv,1,600,,Button-Switch at home,,,,,,,,,,,,,k
3,23,227,A,53.742207469674234,71.12903072364932,2.6871103734837116,1.1172922018918972,A,2233.580749016255,Correct,sub_003_day_23_data.csv,1,600,,Button-Switch at home,,,,,,,,,,,,,k
3,23,228,B,63.22789186080034,48.162748146042894,3.161394593040017,0.7565386787615188,B,974.4989989558236,Correct,sub_003_day_23_data.csv,1,600,,Button-Switch at home,,,,,,,,,,,,,d
3,23,229,B,70.87382865106409,47.25037203007141,3.5436914325532043,0.7422071082452848,B,805.8776240213774,Correct,sub_003_day_23_data.csv,1,600,,Button-Switch at home,,,,,,,,,,,,,d
3,23,230,B,38.33456817289113,20.31414012968231,1.9167284086445564,0.3190937669770178,B,709.1771659906954,Correct,sub_003_day_23_data.csv,1,600,,Button-Switch at home,,,,,,,,,,,,,d
3,23,231,A,58.3965914320984,84.5701739090867,2.91982957160492,1.32842518532799,A,904.9456239445136,Correct,sub_003_day_23_data.csv,1,600,,Button-Switch at home,,,,,,,,,,,,,k
3,23,232,B,68.44826713901476,47.77521809434629,3.422413356950738,0.7504513709442424,A,1620.8597079967149,Incorrect,sub_003_day_23_data.csv,0,600,,Button-Switch at home,,,,,,,,,,,,,k
3,23,233,A,40.77591519083876,53.44910601426164,2.038795759541938,0.8395765939767319,A,1260.8187909936532,Correct,sub_003_day_23_data.csv,1,600,,Button-Switch at home,,,,,,,,,,,,,k
3,23,234,A,63.6396194346399,81.19415927264654,3.1819809717319947,1.2753948714267298,A,1021.9807910034432,Correct,sub_003_day_23_data.csv,1,600,,Button-Switch at home,,,,,,,,,,,,,k
3,23,235,A,54.008455426688585,82.84832722178815,2.700422771334429,1.3013784808108648,A,521.5008750092238,Correct,sub_003_day_23_data.csv,1,600,,Button-Switch at home,,,,,,,,,,,,,k
3,23,236,B,44.643097003327235,33.57084854229758,2.2321548501663617,0.5273296557762884,B,1106.524457980413,Correct,sub_003_day_23_data.csv,1,600,,Button-Switch at home,,,,,,,,,,,,,d
3,23,237,B,52.67064446879618,31.776320783601037,2.633532223439809,0.4991412796593684,B,1104.7691659769043,Correct,sub_003_day_23_data.csv,1,600,,Button-Switch at home,,,,,,,,,,,,,d
3,23,238,B,64.69738120454625,43.320868677030006,3.234869060227312,0.6804826139144283,B,599.4676660047844,Correct,sub_003_day_23_data.csv,1,600,,Button-Switch at home,,,,,,,,,,,,,d
3,23,239,B,59.05482965617979,39.26918648161187,2.9527414828089893,0.6168389388153973,B,729.1134989936836,Correct,sub_003_day_23_data.csv,1,600,,Button-Switch at home,,,,,,,,,,,,,d
3,23,240,A,52.57469151373263,61.28044087035714,2.628734575686632,0.9625909142352884,A,1893.1520000332969,Correct,sub_003_day_23_data.csv,1,600,,Button-Switch at home,,,,,,,,,,,,,k
3,23,241,A,59.968174768660816,81.85477369077965,2.9984087384330405,1.285771778441042,A,622.8225409868173,Correct,sub_003_day_23_data.csv,1,600,,Button-Switch at home,,,,,,,,,,,,,k
3,23,242,A,32.07973758516143,52.638145766056624,1.6039868792580716,0.8268380601861607,A,796.1012070300058,Correct,sub_003_day_23_data.csv,1,600,,Button-Switch at home,,,,,,,,,,,,,k
3,23,243,A,42.676459590924296,69.43066414591314,2.133822979546215,1.0906143220733049,A,1378.2063329708762,Correct,sub_003_day_23_data.csv,1,600,,Button-Switch at home,,,,,,,,,,,,,k
3,23,244,B,41.892448186170434,14.36158011057999,2.094622409308522,0.2255911728466969,B,1706.5042490139604,Correct,sub_003_day_23_data.csv,1,600,,Button-Switch at home,,,,,,,,,,,,,d
3,23,245,A,33.005944737815355,54.531193458279766,1.6502972368907678,0.8565739838000774,A,792.0650820014998,Correct,sub_003_day_23_data.csv,1,600,,Button-Switch at home,,,,,,,,,,,,,k
3,23,246,A,24.94987754517067,48.0862900679729,1.2474938772585331,0.7553376780796573,A,1055.2136659971438,Correct,sub_003_day_23_data.csv,1,600,,Button-Switch at home,,,,,,,,,,,,,k
3,23,247,A,49.06065305029898,79.72463176733878,2.453032652514949,1.252311587352115,A,1621.8992079957388,Correct,sub_003_day_23_data.csv,1,600,,Button-Switch at home,,,,,,,,,,,,,k
3,23,248,B,75.29858148629137,52.92321464697745,3.764929074314568,0.8313159116965004,B,829.2054990306497,Correct,sub_003_day_23_data.csv,1,600,,Button-Switch at home,,,,,,,,,,,,,d
3,23,249,A,24.48376294193064,42.90930952530285,1.224188147096532,0.6740178578765099,A,1117.7807499771006,Correct,sub_003_day_23_data.csv,1,600,,Button-Switch at home,,,,,,,,,,,,,k
3,23,250,B,55.00008545739936,32.049830060334564,2.750004272869968,0.5034375533317419,B,766.5647910325788,Correct,sub_003_day_23_data.csv,1,600,,Button-Switch at home,,,,,,,,,,,,,d
3,23,251,A,15.065486039530352,36.24513058803342,0.7532743019765177,0.5693371799188424,A,1257.3073739768006,Correct,sub_003_day_23_data.csv,1,600,,Button-Switch at home,,,,,,,,,,,,,k
3,23,252,B,54.66472068944751,42.67244909607799,2.733236034472376,0.6702972629546151,B,624.3382910033688,Correct,sub_003_day_23_data.csv,1,600,,Button-Switch at home,,,,,,,,,,,,,d
3,23,253,B,54.496878904322514,28.224696754290303,2.7248439452161257,0.4433524998653905,B,756.0639990260825,Correct,sub_003_day_23_data.csv,1,600,,Button-Switch at home,,,,,,,,,,,,,d
3,23,254,B,86.63982704131801,67.47977885365214,4.331991352065901,1.0599698875624872,A,1457.356124999933,Incorrect,sub_003_day_23_data.csv,0,600,,Button-Switch at home,,,,,,,,,,,,,k
3,23,255,A,58.13287565149592,84.92252712193164,2.906643782574796,1.333959936652702,A,1104.22949900385,Correct,sub_003_day_23_data.csv,1,600,,Button-Switch at home,,,,,,,,,,,,,k
3,23,256,A,30.86119008529323,55.003990057287325,1.5430595042646615,0.8640006554104995,A,1195.1024999725632,Correct,sub_003_day_23_data.csv,1,600,,Button-Switch at home,,,,,,,,,,,,,k
3,23,257,A,63.728797270195585,86.26845728351057,3.1864398635097793,1.3551017581920084,A,1258.7519569788128,Correct,sub_003_day_23_data.csv,1,600,,Button-Switch at home,,,,,,,,,,,,,k
3,23,258,A,21.167540344996223,50.92761447940978,1.0583770172498113,0.7999690975668347,A,1385.6082080164924,Correct,sub_003_day_23_data.csv,1,600,,Button-Switch at home,,,,,,,,,,,,,k
3,23,259,A,53.416811928416315,76.54440741117098,2.6708405964208155,1.2023567399815942,A,1091.3275830098428,Correct,sub_003_day_23_data.csv,1,600,,Button-Switch at home,,,,,,,,,,,,,k
3,23,260,A,60.583321675083155,77.12469433389109,3.0291660837541574,1.211471865648553,A,575.3212079871446,Correct,sub_003_day_23_data.csv,1,600,,Button-Switch at home,,,,,,,,,,,,,k
3,23,261,A,14.317516970666212,31.61934121704159,0.7158758485333107,0.496675450394034,A,2455.6710830074735,Correct,sub_003_day_23_data.csv,1,600,,Button-Switch at home,,,,,,,,,,,,,k
3,23,262,A,34.57103366279708,61.48629091447284,1.728551683139854,0.9658243991669636,A,816.2778330151923,Correct,sub_003_day_23_data.csv,1,600,,Button-Switch at home,,,,,,,,,,,,,k
3,23,263,B,70.05143131876763,53.82518563650102,3.5025715659383816,0.8454840388686923,B,832.1870830259286,Correct,sub_003_day_23_data.csv,1,600,,Button-Switch at home,,,,,,,,,,,,,d
3,23,264,A,46.5159410814379,62.6910937446998,2.325797054071895,0.9847493977692896,A,856.4069580170326,Correct,sub_003_day_23_data.csv,1,600,,Button-Switch at home,,,,,,,,,,,,,k
3,23,265,A,22.82936650629316,42.74136199325366,1.1414683253146578,0.6713797442121384,A,586.4520829636604,Correct,sub_003_day_23_data.csv,1,600,,Button-Switch at home,,,,,,,,,,,,,k
3,23,266,B,48.274878518119024,36.49240226239233,2.413743925905951,0.5732213142968764,B,1156.3535410095938,Correct,sub_003_day_23_data.csv,1,600,,Button-Switch at home,,,,,,,,,,,,,d
3,23,267,B,80.8965418632672,66.51045197287256,4.04482709316336,1.044743736524566,B,3410.3224989958107,Correct,sub_003_day_23_data.csv,1,600,,Button-Switch at home,,,,,,,,,,,,,d
3,23,268,B,62.263687562739435,45.15984782152229,3.113184378136972,0.7093692307666373,B,846.0792489931919,Correct,sub_003_day_23_data.csv,1,600,,Button-Switch at home,,,,,,,,,,,,,d
3,23,269,A,29.277043073738,59.437604144930745,1.4638521536869,0.9336437026434634,A,654.6166249900125,Correct,sub_003_day_23_data.csv,1,600,,Button-Switch at home,,,,,,,,,,,,,k
3,23,270,A,61.66720311541418,84.47075315746497,3.083360155770709,1.3268634878134438,A,985.32024997985,Correct,sub_003_day_23_data.csv,1,600,,Button-Switch at home,,,,,,,,,,,,,k
3,23,271,A,65.1193020821967,80.62376946096641,3.2559651041098348,1.266435209216446,A,1024.4012069888413,Correct,sub_003_day_23_data.csv,1,600,,Button-Switch at home,,,,,,,,,,,,,k
3,23,272,A,45.53592210495267,73.59277210791697,2.2767961052476333,1.1559925610576989,A,1431.7231659661047,Correct,sub_003_day_23_data.csv,1,600,,Button-Switch at home,,,,,,,,,,,,,k
3,23,273,A,24.665234687147915,51.56974965578704,1.2332617343573955,0.8100557333304266,A,1045.2343740034848,Correct,sub_003_day_23_data.csv,1,600,,Button-Switch at home,,,,,,,,,,,,,k
3,23,274,A,49.01445501463553,77.82157648390475,2.4507227507317766,1.2224184648630567,A,1374.541750003118,Correct,sub_003_day_23_data.csv,1,600,,Button-Switch at home,,,,,,,,,,,,,k
3,23,275,B,71.26748654618608,56.31362551043085,3.563374327309304,0.8845723610028817,B,1118.7282499740832,Correct,sub_003_day_23_data.csv,1,600,,Button-Switch at home,,,,,,,,,,,,,d
3,23,276,A,37.88113129982256,45.66046852837387,1.894056564991128,0.7172329624410365,A,1772.0221239724196,Correct,sub_003_day_23_data.csv,1,600,,Button-Switch at home,,,,,,,,,,,,,k
3,23,277,A,67.39799072824528,85.6207449344782,3.369899536412264,1.344927516405211,A,1086.7706250282936,Correct,sub_003_day_23_data.csv,1,600,,Button-Switch at home,,,,,,,,,,,,,k
3,23,278,B,51.77167520537163,33.312088656146294,2.5885837602685813,0.5232650649894054,B,1128.445373964496,Correct,sub_003_day_23_data.csv,1,600,,Button-Switch at home,,,,,,,,,,,,,d
3,23,279,B,40.81395971694977,30.964891104353228,2.0406979858474883,0.4863953720632202,B,879.9818319967017,Correct,sub_003_day_23_data.csv,1,600,,Button-Switch at home,,,,,,,,,,,,,d
3,23,280,B,40.076947815919326,29.630361812575863,2.003847390795966,0.4654326349679794,B,1597.419458033983,Correct,sub_003_day_23_data.csv,1,600,,Button-Switch at home,,,,,,,,,,,,,d
3,23,281,B,38.60680384736871,19.17314836424301,1.9303401923684356,0.301171110236465,B,848.3549570082687,Correct,sub_003_day_23_data.csv,1,600,,Button-Switch at home,,,,,,,,,,,,,d
3,23,282,B,68.33164708942354,47.68670172448428,3.416582354471177,0.7490609590578378,B,973.2163320295512,Correct,sub_003_day_23_data.csv,1,600,,Button-Switch at home,,,,,,,,,,,,,d
3,23,283,A,33.57705945349625,46.011978185098144,1.6788529726748125,0.7227544632171908,A,845.0805820175447,Correct,sub_003_day_23_data.csv,1,600,,Button-Switch at home,,,,,,,,,,,,,k
3,23,284,B,54.46263418485971,35.82506918972007,2.7231317092429856,0.562738870903853,B,860.9399579581805,Correct,sub_003_day_23_data.csv,1,600,,Button-Switch at home,,,,,,,,,,,,,d
3,23,285,B,82.52476616204838,62.15935406898961,4.126238308102419,0.9763968504751228,B,1090.9348329878412,Correct,sub_003_day_23_data.csv,1,600,,Button-Switch at home,,,,,,,,,,,,,d
3,23,286,A,20.912370670732287,39.50328058014546,1.0456185335366144,0.6205160803164067,A,1008.083708002232,Correct,sub_003_day_23_data.csv,1,600,,Button-Switch at home,,,,,,,,,,,,,k
3,23,287,A,58.18625895481444,69.93221135830382,2.9093129477407222,1.09849260726268,A,700.4716240335256,Correct,sub_003_day_23_data.csv,1,600,,Button-Switch at home,,,,,,,,,,,,,k
3,23,288,B,80.52552326033734,61.30459977515175,4.026276163016867,0.962970401424396,B,960.1579579757528,Correct,sub_003_day_23_data.csv,1,600,,Button-Switch at home,,,,,,,,,,,,,d
3,23,289,B,59.084887025594234,28.53632801209188,2.9542443512797116,0.4482475922160823,B,576.1955819907598,Correct,sub_003_day_23_data.csv,1,600,,Button-Switch at home,,,,,,,,,,,,,d
3,23,290,B,83.36101611483963,66.1593985310374,4.168050805741982,1.039229401955132,B,1628.4593740128912,Correct,sub_003_day_23_data.csv,1,600,,Button-Switch at home,,,,,,,,,,,,,d
3,23,291,B,75.13023402350454,63.480546706148566,3.7565117011752274,0.9971500958895004,B,1416.6494160308505,Correct,sub_003_day_23_data.csv,1,600,,Button-Switch at home,,,,,,,,,,,,,d
3,23,292,A,29.94557579150994,55.0984695337019,1.497278789575497,0.8654847355555946,A,1871.034166018944,Correct,sub_003_day_23_data.csv,1,600,,Button-Switch at home,,,,,,,,,,,,,k
3,23,293,B,61.675293116116094,51.86980929633928,3.0837646558058047,0.8147690591424152,B,772.4108750117011,Correct,sub_003_day_23_data.csv,1,600,,Button-Switch at home,,,,,,,,,,,,,d
3,23,294,B,55.083920054593726,42.77802456883395,2.7541960027296866,0.671955638602662,B,1380.4426660062743,Correct,sub_003_day_23_data.csv,1,600,,Button-Switch at home,,,,,,,,,,,,,d
3,23,295,B,54.446946507684345,46.16898790630663,2.7223473253842174,0.7252207661506447,B,840.4434580006637,Correct,sub_003_day_23_data.csv,1,600,,Button-Switch at home,,,,,,,,,,,,,d
3,23,296,A,57.10033514192405,71.08530825111094,2.8550167570962026,1.1166054108992804,A,782.3707910138182,Correct,sub_003_day_23_data.csv,1,600,,Button-Switch at home,,,,,,,,,,,,,k
3,23,297,B,39.38962927844499,15.770871664935466,1.9694814639222495,0.2477282728163434,B,760.6969579937868,Correct,sub_003_day_23_data.csv,1,600,,Button-Switch at home,,,,,,,,,,,,,d
3,23,298,A,27.22968567558725,46.21681175658945,1.3614842837793624,0.725971981434219,A,1619.6089580189437,Correct,sub_003_day_23_data.csv,1,600,,Button-Switch at home,,,,,,,,,,,,,k
3,23,299,A,30.27370342693121,50.22287444209168,1.5136851713465602,0.788899066947189,A,822.4333330290392,Correct,sub_003_day_23_data.csv,1,600,,Button-Switch at home,,,,,,,,,,,,,k
3,23,300,A,21.41458095851829,46.698123627214535,1.0707290479259144,0.7335324106184257,A,2888.207498996053,Correct,sub_003_day_23_data.csv,1,600,,Button-Switch at home,,,,,,,,,,,,,k
3,23,301,A,21.15632194436916,50.8261939089021,1.057816097218458,0.7983759869706857,A,1257.7698330278508,Correct,sub_003_day_23_data.csv,1,600,,Button-Switch at home,,,,,,,,,,,,,k
3,23,302,A,67.23582340756045,85.65600583614962,3.3617911703780226,1.3454813933534604,A,991.9082910055296,Correct,sub_003_day_23_data.csv,1,600,,Button-Switch at home,,,,,,,,,,,,,k
3,23,303,A,58.16304858813527,69.07660871536183,2.9081524294067633,1.085052832375387,B,1184.9267489742488,Incorrect,sub_003_day_23_data.csv,0,600,,Button-Switch at home,,,,,,,,,,,,,d
3,23,304,A,57.1726445258486,83.44566056192147,2.8586322262924297,1.3107613709764,A,611.3801659666933,Correct,sub_003_day_23_data.csv,1,600,,Button-Switch at home,,,,,,,,,,,,,k
3,23,305,A,44.083158140729616,58.50556062975692,2.2041579070364805,0.9190031973429827,A,3558.084081974812,Correct,sub_003_day_23_data.csv,1,600,,Button-Switch at home,,,,,,,,,,,,,k
3,23,306,A,59.593827182904946,84.79390313097107,2.979691359145247,1.3319395157273164,A,1654.6353329904375,Correct,sub_003_day_23_data.csv,1,600,,Button-Switch at home,,,,,,,,,,,,,k
3,23,307,B,43.27084493742022,20.215470272177928,2.1635422468710113,0.3175438644796852,B,762.2975410195068,Correct,sub_003_day_23_data.csv,1,600,,Button-Switch at home,,,,,,,,,,,,,d
3,23,308,B,64.13607221172111,41.34198009775752,3.206803610586056,0.6493983047998523,B,819.386790972203,Correct,sub_003_day_23_data.csv,1,600,,Button-Switch at home,,,,,,,,,,,,,d
3,23,309,B,43.61578577515502,14.634125645106025,2.180789288757751,0.2298723080918754,B,976.8415410071613,Correct,sub_003_day_23_data.csv,1,600,,Button-Switch at home,,,,,,,,,,,,,d
3,23,310,A,48.925245237298654,79.11889143804495,2.446262261864933,1.242796640509652,A,684.4715830520727,Correct,sub_003_day_23_data.csv,1,600,,Button-Switch at home,,,,,,,,,,,,,k
3,23,311,B,44.84798842147397,27.5959277714551,2.242399421073699,0.4334758197789894,B,630.7059990358539,Correct,sub_003_day_23_data.csv,1,600,,Button-Switch at home,,,,,,,,,,,,,d
3,23,312,B,43.98799693365176,36.31156336964881,2.1993998466825877,0.5703807036122447,B,589.2276240047067,Correct,sub_003_day_23_data.csv,1,600,,Button-Switch at home,,,,,,,,,,,,,d
3,23,313,B,57.35402122723296,28.05611826845,2.8677010613616485,0.4407044752020445,B,1046.5533320093527,Correct,sub_003_day_23_data.csv,1,600,,Button-Switch at home,,,,,,,,,,,,,d
3,23,314,B,68.41424056850082,48.67148480199617,3.420712028425041,0.7645298954662921,B,1043.0860409978775,Correct,sub_003_day_23_data.csv,1,600,,Button-Switch at home,,,,,,,,,,,,,d
3,23,315,B,43.03073479133998,14.15618301763731,2.151536739566999,0.2223648028554098,B,620.0805829721503,Correct,sub_003_day_23_data.csv,1,600,,Button-Switch at home,,,,,,,,,,,,,d
3,23,316,B,79.63808444446659,50.93684314322783,3.981904222223329,0.800114061079101,B,748.2182909734547,Correct,sub_003_day_23_data.csv,1,600,,Button-Switch at home,,,,,,,,,,,,,d
3,23,317,A,50.47924748218685,60.727566512207304,2.5239623741093427,0.95390638412568,A,1344.3795000202954,Correct,sub_003_day_23_data.csv,1,600,,Button-Switch at home,,,,,,,,,,,,,k
3,23,318,A,36.15185042399983,65.77748550195456,1.8075925211999917,1.0332303261227478,A,670.4442909685895,Correct,sub_003_day_23_data.csv,1,600,,Button-Switch at home,,,,,,,,,,,,,k
3,23,319,B,77.77807576370789,61.462551889353165,3.8889037881853943,0.9654515074323669,B,772.2675830009393,Correct,sub_003_day_23_data.csv,1,600,,Button-Switch at home,,,,,,,,,,,,,d
3,23,320,B,68.7835948709288,42.95374744993631,3.43917974354644,0.674715887164356,B,588.4996250388213,Correct,sub_003_day_23_data.csv,1,600,,Button-Switch at home,,,,,,,,,,,,,d
3,23,321,B,49.34748514005074,18.991588053335363,2.467374257002537,0.2983191675418103,B,503.8029990391806,Correct,sub_003_day_23_data.csv,1,600,,Button-Switch at home,,,,,,,,,,,,,d
3,23,322,A,28.768579517747,44.320915751275905,1.43842897588735,0.6961913166229026,A,632.8385000233538,Correct,sub_003_day_23_data.csv,1,600,,Button-Switch at home,,,,,,,,,,,,,k
3,23,323,B,75.47915688961507,57.48062104770493,3.7739578444807536,0.9029034840362432,B,593.0119160329923,Correct,sub_003_day_23_data.csv,1,600,,Button-Switch at home,,,,,,,,,,,,,d
3,23,324,A,26.05218427201796,42.1903526807328,1.3026092136008982,0.662724510170763,A,617.4150410224684,Correct,sub_003_day_23_data.csv,1,600,,Button-Switch at home,,,,,,,,,,,,,k
3,23,325,B,52.57395520495387,30.886605926392075,2.6286977602476935,0.4851656713633815,B,445.315124001354,Correct,sub_003_day_23_data.csv,1,600,,Button-Switch at home,,,,,,,,,,,,,d
3,23,326,A,47.41379044360008,60.374671424585145,2.3706895221800037,0.9483631210518716,A,1714.9186249589548,Correct,sub_003_day_23_data.csv,1,600,,Button-Switch at home,,,,,,,,,,,,,k
3,23,327,A,42.7377173090325,52.84959674745158,2.136885865451625,0.8301595244348844,A,1466.14083298482,Correct,sub_003_day_23_data.csv,1,600,,Button-Switch at home,,,,,,,,,,,,,k
3,23,328,B,56.778209040195605,39.95456494179518,2.8389104520097805,0.6276048384926001,B,608.3849580027163,Correct,sub_003_day_23_data.csv,1,600,,Button-Switch at home,,,,,,,,,,,,,d
3,23,329,B,87.95697191916139,68.05548883866636,4.397848595958069,1.069013118860082,B,821.8864160007797,Correct,sub_003_day_23_data.csv,1,600,,Button-Switch at home,,,,,,,,,,,,,d
3,23,330,A,41.57307604743706,54.82744258655005,2.078653802371853,0.861227454225109,A,1015.296415949706,Correct,sub_003_day_23_data.csv,1,600,,Button-Switch at home,,,,,,,,,,,,,k
3,23,331,B,89.78695340799848,65.74022996063299,4.4893476703999236,1.032645117448141,B,603.3537909970619,Correct,sub_003_day_23_data.csv,1,600,,Button-Switch at home,,,,,,,,,,,,,d
3,23,332,A,22.109368249483776,42.84177916516367,1.105468412474189,0.6729570934599723,A,595.3804579912685,Correct,sub_003_day_23_data.csv,1,600,,Button-Switch at home,,,,,,,,,,,,,k
3,23,333,A,20.168078397455908,49.36218529978811,1.0084039198727952,0.775379393514762,A,562.7157080452889,Correct,sub_003_day_23_data.csv,1,600,,Button-Switch at home,,,,,,,,,,,,,k
3,23,334,A,39.059687920194015,68.71929263212289,1.9529843960097009,1.0794401244648222,A,545.1317079714499,Correct,sub_003_day_23_data.csv,1,600,,Button-Switch at home,,,,,,,,,,,,,k
3,23,335,A,47.78745526122519,69.660764707373,2.38937276306126,1.0942287332406508,A,612.5505410018377,Correct,sub_003_day_23_data.csv,1,600,,Button-Switch at home,,,,,,,,,,,,,k
3,23,336,A,20.008990406592716,36.80329046271494,1.0004495203296355,0.5781047347279827,A,631.6167080076411,Correct,sub_003_day_23_data.csv,1,600,,Button-Switch at home,,,,,,,,,,,,,k
3,23,337,A,21.18274437148248,42.57240479492036,1.059137218574124,0.6687257707468635,A,1020.205373992212,Correct,sub_003_day_23_data.csv,1,600,,Button-Switch at home,,,,,,,,,,,,,k
3,23,338,B,82.27135506140158,61.88219669781478,4.113567753070079,0.9720432726692672,B,911.1204569926484,Correct,sub_003_day_23_data.csv,1,600,,Button-Switch at home,,,,,,,,,,,,,d
3,23,339,B,60.36313829114344,36.02926016166601,3.0181569145571716,0.5659462951908267,B,1354.826124967076,Correct,sub_003_day_23_data.csv,1,600,,Button-Switch at home,,,,,,,,,,,,,d
3,23,340,A,44.22840702719948,59.4896399216575,2.211420351359974,0.9344610787129064,B,1438.023457012605,Incorrect,sub_003_day_23_data.csv,0,600,,Button-Switch at home,,,,,,,,,,,,,d
3,23,341,A,57.50719791583589,72.2295042764825,2.8753598957917945,1.13457840003715,A,2510.46929100994,Correct,sub_003_day_23_data.csv,1,600,,Button-Switch at home,,,,,,,,,,,,,k
3,23,342,B,45.9779041268322,18.6935949739686,2.29889520634161,0.2936383031970141,B,1455.450456996914,Correct,sub_003_day_23_data.csv,1,600,,Button-Switch at home,,,,,,,,,,,,,d
3,23,343,A,30.324463464165607,58.6579373339252,1.5162231732082805,0.9213967250149494,A,1884.424541029148,Correct,sub_003_day_23_data.csv,1,600,,Button-Switch at home,,,,,,,,,,,,,k
3,23,344,A,18.013503747893704,32.35062293206516,0.9006751873946852,0.508162396712147,A,1107.048081990797,Correct,sub_003_day_23_data.csv,1,600,,Button-Switch at home,,,,,,,,,,,,,k
3,23,345,A,19.072854628486173,49.40537892531437,0.9536427314243086,0.7760578773979382,A,875.3283320111223,Correct,sub_003_day_23_data.csv,1,600,,Button-Switch at home,,,,,,,,,,,,,k
3,23,346,B,72.94720142049171,51.90669181314547,3.6473600710245857,0.8153484083616364,B,3334.180290985387,Correct,sub_003_day_23_data.csv,1,600,,Button-Switch at home,,,,,,,,,,,,,d
3,23,347,B,52.81583887945952,44.4116550689525,2.6407919439729763,0.6976166464919255,B,1771.3083329726942,Correct,sub_003_day_23_data.csv,1,600,,Button-Switch at home,,,,,,,,,,,,,d
3,23,348,A,65.94124476334514,87.17900540380461,3.297062238167257,1.3694046146192873,A,977.5332490098664,Correct,sub_003_day_23_data.csv,1,600,,Button-Switch at home,,,,,,,,,,,,,k
3,23,349,B,56.19496476708548,37.77353949543272,2.809748238354274,0.5933453708946766,B,609.2194570228457,Correct,sub_003_day_23_data.csv,1,600,,Button-Switch at home,,,,,,,,,,,,,d
3,23,350,A,42.47827828436952,53.09850112913385,2.1239139142184764,0.8340693053195811,A,941.064583021216,Correct,sub_003_day_23_data.csv,1,600,,Button-Switch at home,,,,,,,,,,,,,k
3,23,351,A,21.811267371618055,33.40917439126693,1.0905633685809029,0.5247900841505222,A,1129.7160829999484,Correct,sub_003_day_23_data.csv,1,600,,Button-Switch at home,,,,,,,,,,,,,k
3,23,352,B,59.29755114167715,36.04356555908402,2.9648775570838577,0.5661710038480022,B,733.5029999958351,Correct,sub_003_day_23_data.csv,1,600,,Button-Switch at home,,,,,,,,,,,,,d
3,23,353,A,32.50882030601006,57.40646976621459,1.6254410153005028,0.9017387184303216,A,709.4987080199644,Correct,sub_003_day_23_data.csv,1,600,,Button-Switch at home,,,,,,,,,,,,,k
3,23,354,B,62.2319397606924,48.71663791256242,3.11159698803462,0.7652391588685005,B,718.94195798086,Correct,sub_003_day_23_data.csv,1,600,,Button-Switch at home,,,,,,,,,,,,,d
3,23,355,B,74.49093578088963,48.44343536871329,3.7245467890444814,0.7609477033450082,B,695.2268739696592,Correct,sub_003_day_23_data.csv,1,600,,Button-Switch at home,,,,,,,,,,,,,d
3,23,356,A,33.38784686123659,61.21574378315922,1.6693923430618296,0.9615746547660404,A,1167.7767080254853,Correct,sub_003_day_23_data.csv,1,600,,Button-Switch at home,,,,,,,,,,,,,k
3,23,357,A,57.3291255735716,71.43984811277525,2.86645627867858,1.122174510023327,A,658.2662069704384,Correct,sub_003_day_23_data.csv,1,600,,Button-Switch at home,,,,,,,,,,,,,k
3,23,358,B,77.22819606758912,64.89001210554616,3.861409803379456,1.019289926610683,A,525.3635830013081,Incorrect,sub_003_day_23_data.csv,0,600,,Button-Switch at home,,,,,,,,,,,,,k
3,23,359,A,50.65047941337724,78.49167960841748,2.532523970668862,1.2329444201286408,A,643.3182489708997,Correct,sub_003_day_23_data.csv,1,600,,Button-Switch at home,,,,,,,,,,,,,k
3,23,360,B,62.90848097084632,47.00499525725962,3.145424048542316,0.7383527389111495,B,2048.2832490233704,Correct,sub_003_day_23_data.csv,1,600,,Button-Switch at home,,,,,,,,,,,,,d
3,23,361,A,39.70582750859208,54.66956281744424,1.985291375429604,0.8587474846112427,A,1813.2136660278777,Correct,sub_003_day_23_data.csv,1,600,,Button-Switch at home,,,,,,,,,,,,,k
3,23,362,A,32.418463655591125,56.55214601787928,1.6209231827795565,0.8883190323725341,A,508.1052490277216,Correct,sub_003_day_23_data.csv,1,600,,Button-Switch at home,,,,,,,,,,,,,k
3,23,363,A,46.73226898074059,71.22198078698149,2.3366134490370296,1.1187522580724722,A,568.1867910316214,Correct,sub_003_day_23_data.csv,1,600,,Button-Switch at home,,,,,,,,,,,,,k
3,23,364,A,43.984237892279346,70.784171655137,2.1992118946139674,1.1118751683110863,A,760.1587499957532,Correct,sub_003_day_23_data.csv,1,600,,Button-Switch at home,,,,,,,,,,,,,k
3,23,365,A,62.39408985997116,72.60466208682288,3.1197044929985576,1.1404713651416607,A,787.284707010258,Correct,sub_003_day_23_data.csv,1,600,,Button-Switch at home,,,,,,,,,,,,,k
3,23,366,B,47.00140048634854,33.89188888690796,2.350070024317427,0.532372545716958,B,906.6743750008754,Correct,sub_003_day_23_data.csv,1,600,,Button-Switch at home,,,,,,,,,,,,,d
3,23,367,B,80.2997733802013,62.58228128232402,4.014988669010065,0.9830401756071958,B,3274.6572910109535,Correct,sub_003_day_23_data.csv,1,600,,Button-Switch at home,,,,,,,,,,,,,d
3,23,368,A,10.505048526320238,34.238273328238854,0.5252524263160119,0.5378135397979726,A,736.1913329805247,Correct,sub_003_day_23_data.csv,1,600,,Button-Switch at home,,,,,,,,,,,,,k
3,23,369,A,64.13312552144347,76.9545830795183,3.206656276072174,1.2087997643134003,A,1022.90445799008,Correct,sub_003_day_23_data.csv,1,600,,Button-Switch at home,,,,,,,,,,,,,k
3,23,370,B,61.41485238439191,39.647664887175985,3.0707426192195952,0.6227840637077103,B,566.5175830363296,Correct,sub_003_day_23_data.csv,1,600,,Button-Switch at home,,,,,,,,,,,,,d
3,23,371,A,32.7829750646251,61.66747228331312,1.639148753231255,0.9686703894535434,A,557.6111249974929,Correct,sub_003_day_23_data.csv,1,600,,Button-Switch at home,,,,,,,,,,,,,k
3,23,372,B,56.424628958342495,47.314050425203966,2.8212314479171248,0.743207366136989,B,592.5909989746287,Correct,sub_003_day_23_data.csv,1,600,,Button-Switch at home,,,,,,,,,,,,,d
3,23,373,A,29.14113120107679,41.25496308965072,1.4570565600538397,0.6480314448328239,A,863.9164160122164,Correct,sub_003_day_23_data.csv,1,600,,Button-Switch at home,,,,,,,,,,,,,k
3,23,374,B,78.45911603580382,66.64012466262315,3.922955801790191,1.0467806303720244,B,795.0426239985973,Correct,sub_003_day_23_data.csv,1,600,,Button-Switch at home,,,,,,,,,,,,,d
3,23,375,A,48.413761422564264,73.77093461484604,2.4206880711282133,1.1587911311722665,A,1002.2848749649712,Correct,sub_003_day_23_data.csv,1,600,,Button-Switch at home,,,,,,,,,,,,,k
3,23,376,B,76.70400666261031,51.131100332081786,3.835200333130515,0.803165445866154,B,652.1979990066029,Correct,sub_003_day_23_data.csv,1,600,,Button-Switch at home,,,,,,,,,,,,,d
3,23,377,B,78.82151139274481,50.90341994278463,3.9410755696372406,0.7995890506742419,B,622.3544160020538,Correct,sub_003_day_23_data.csv,1,600,,Button-Switch at home,,,,,,,,,,,,,d
3,23,378,B,70.64347411905035,37.581402292687166,3.5321737059525176,0.5903272867715431,B,561.1865830142051,Correct,sub_003_day_23_data.csv,1,600,,Button-Switch at home,,,,,,,,,,,,,d
3,23,379,B,73.74464641105914,52.62568203280864,3.687232320552957,0.82664228032212,B,470.2155829872936,Correct,sub_003_day_23_data.csv,1,600,,Button-Switch at home,,,,,,,,,,,,,d
3,23,380,A,51.96079390842347,69.19877698267308,2.598039695421173,1.086971847030821,A,657.7509159687907,Correct,sub_003_day_23_data.csv,1,600,,Button-Switch at home,,,,,,,,,,,,,k
3,23,381,B,51.9122649192468,28.673583879450035,2.59561324596234,0.4504036023388548,B,484.8286240012385,Correct,sub_003_day_23_data.csv,1,600,,Button-Switch at home,,,,,,,,,,,,,d
3,23,382,B,44.28196456135197,18.413969136630023,2.2140982280675985,0.2892459508153304,B,459.56883195322007,Correct,sub_003_day_23_data.csv,1,600,,Button-Switch at home,,,,,,,,,,,,,d
3,23,383,A,41.47365944486436,70.15537723791762,2.0736829722432177,1.101998088702313,A,648.3460830058903,Correct,sub_003_day_23_data.csv,1,600,,Button-Switch at home,,,,,,,,,,,,,k
3,23,384,A,42.60305947685352,55.18508494673145,2.130152973842676,0.8668452872819011,A,1609.27499900572,Correct,sub_003_day_23_data.csv,1,600,,Button-Switch at home,,,,,,,,,,,,,k
3,23,385,A,17.532715262247294,48.24622242477505,0.8766357631123647,0.7578498896656621,A,886.1062490032054,Correct,sub_003_day_23_data.csv,1,600,,Button-Switch at home,,,,,,,,,,,,,k
3,23,386,B,82.5994399291834,58.28249528758923,4.129971996459171,0.9154992951418603,B,675.6863329792395,Correct,sub_003_day_23_data.csv,1,600,,Button-Switch at home,,,,,,,,,,,,,d
3,23,387,A,40.224673417159785,49.224467099729,2.011233670857989,0.7732161210869055,A,917.5322080263868,Correct,sub_003_day_23_data.csv,1,600,,Button-Switch at home,,,,,,,,,,,,,k
3,23,388,B,61.58396309298463,36.05439600874873,3.0791981546492315,0.5663411281535109,B,553.4003750071861,Correct,sub_003_day_23_data.csv,1,600,,Button-Switch at home,,,,,,,,,,,,,d
3,23,389,B,81.52336551450202,50.35244003280438,4.0761682757251005,0.7909342784868941,B,668.5676660272293,Correct,sub_003_day_23_data.csv,1,600,,Button-Switch at home,,,,,,,,,,,,,d
3,23,390,A,19.405409910017788,42.20226278210549,0.9702704955008896,0.6629115936056427,A,1133.5480000125244,Correct,sub_003_day_23_data.csv,1,600,,Button-Switch at home,,,,,,,,,,,,,k
3,23,391,A,46.00948942536563,58.29804621533308,2.3004744712682816,0.9157435685436434,A,896.7725409893319,Correct,sub_003_day_23_data.csv,1,600,,Button-Switch at home,,,,,,,,,,,,,k
3,23,392,B,65.1002926703222,39.808482467522026,3.2550146335161103,0.6253101803526264,B,764.1927489894442,Correct,sub_003_day_23_data.csv,1,600,,Button-Switch at home,,,,,,,,,,,,,d
3,23,393,B,42.15711678793324,14.64492027104183,2.1078558393966618,0.2300418696795663,B,1918.194375000894,Correct,sub_003_day_23_data.csv,1,600,,Button-Switch at home,,,,,,,,,,,,,d
3,23,394,A,58.83231900663327,84.60695605608731,2.9416159503316637,1.3290029579419915,A,670.8371239947155,Correct,sub_003_day_23_data.csv,1,600,,Button-Switch at home,,,,,,,,,,,,,k
3,23,395,A,49.5766614672102,75.06942324700333,2.4788330733605104,1.1791877429100424,A,1092.972123995423,Correct,sub_003_day_23_data.csv,1,600,,Button-Switch at home,,,,,,,,,,,,,k
3,23,396,A,41.52784241370944,64.33853290531377,2.076392120685472,1.0106273115903943,A,774.682458024472,Correct,sub_003_day_23_data.csv,1,600,,Button-Switch at home,,,,,,,,,,,,,k
3,23,397,A,51.29104513547942,75.98390484071865,2.564552256773971,1.193552386193338,A,893.945916031953,Correct,sub_003_day_23_data.csv,1,600,,Button-Switch at home,,,,,,,,,,,,,k
3,23,398,B,57.40627606211996,44.165937183670295,2.870313803105998,0.6937569189756343,B,1291.6506659821607,Correct,sub_003_day_23_data.csv,1,600,,Button-Switch at home,,,,,,,,,,,,,d
3,23,399,A,47.26767579504896,74.16042409687371,2.3633837897524477,1.1649092176492095,A,865.0382499909028,Correct,sub_003_day_23_data.csv,1,600,,Button-Switch at home,,,,,,,,,,,,,k
3,23,400,A,32.704195869668226,61.77566422596416,1.6352097934834111,0.970369864514594,A,942.2232080250978,Correct,sub_003_day_23_data.csv,1,600,,Button-Switch at home,,,,,,,,,,,,,k
3,23,401,B,85.93763622830897,61.10412482468375,4.296881811415449,0.9598213482663008,B,1091.9267080025747,Correct,sub_003_day_23_data.csv,1,600,,Button-Switch at home,,,,,,,,,,,,,d
3,23,402,A,42.417906920286654,64.92662719117472,2.1208953460143327,1.019865075030789,A,804.9863330088556,Correct,sub_003_day_23_data.csv,1,600,,Button-Switch at home,,,,,,,,,,,,,k
3,23,403,A,51.938639429801306,71.42538803485313,2.5969319714900654,1.1219473716504744,A,719.0970410010777,Correct,sub_003_day_23_data.csv,1,600,,Button-Switch at home,,,,,,,,,,,,,k
3,23,404,B,51.90899883569626,42.8782144449467,2.595449941784813,0.6735294174964616,B,700.0113329850137,Correct,sub_003_day_23_data.csv,1,600,,Button-Switch at home,,,,,,,,,,,,,d
3,23,405,A,59.49317887750445,83.64691241198506,2.9746589438752222,1.3139226276448055,A,884.8035410046577,Correct,sub_003_day_23_data.csv,1,600,,Button-Switch at home,,,,,,,,,,,,,k
3,23,406,B,71.95776587431884,50.516370909086874,3.597888293715942,0.7935092986700222,B,606.5489579923451,Correct,sub_003_day_23_data.csv,1,600,,Button-Switch at home,,,,,,,,,,,,,d
3,23,407,B,55.199033736181875,45.21924543302802,2.759951686809094,0.7103022462663732,B,702.1097489632666,Correct,sub_003_day_23_data.csv,1,600,,Button-Switch at home,,,,,,,,,,,,,d
3,23,408,B,62.53053173969492,34.39928562229768,3.1265265869847463,0.540342714998737,B,925.0561239896342,Correct,sub_003_day_23_data.csv,1,600,,Button-Switch at home,,,,,,,,,,,,,d
3,23,409,A,32.00955368152596,50.37672488917673,1.600477684076298,0.7913157441187584,A,681.785041000694,Correct,sub_003_day_23_data.csv,1,600,,Button-Switch at home,,,,,,,,,,,,,k
3,23,410,B,57.21560616303746,48.03573510503837,2.860780308151873,0.7545435625788696,B,701.7816660227254,Correct,sub_003_day_23_data.csv,1,600,,Button-Switch at home,,,,,,,,,,,,,d
3,23,411,B,36.38964656594558,14.288740766109278,1.8194823282972792,0.2244470150992895,B,953.8568329880944,Correct,sub_003_day_23_data.csv,1,600,,Button-Switch at home,,,,,,,,,,,,,d
3,23,412,A,40.044387487318005,55.35320550247466,2.0022193743659003,0.8694861187961026,A,637.9822500166483,Correct,sub_003_day_23_data.csv,1,600,,Button-Switch at home,,,,,,,,,,,,,k
3,23,413,A,60.24380561513114,70.78731037138104,3.0121902807565566,1.1119244711505565,A,761.4054990117438,Correct,sub_003_day_23_data.csv,1,600,,Button-Switch at home,,,,,,,,,,,,,k
3,23,414,B,53.36587420841856,25.28137272413828,2.668293710420928,0.3971188741140909,B,615.0854989537038,Correct,sub_003_day_23_data.csv,1,600,,Button-Switch at home,,,,,,,,,,,,,d
3,23,415,A,46.37667968484496,70.7186895212635,2.318833984242248,1.1108465773574945,A,543.1422080146149,Correct,sub_003_day_23_data.csv,1,600,,Button-Switch at home,,,,,,,,,,,,,k
3,23,416,B,39.348893069958336,13.62040071562508,1.9674446534979169,0.2139487541357845,B,623.7119159777649,Correct,sub_003_day_23_data.csv,1,600,,Button-Switch at home,,,,,,,,,,,,,d
3,23,417,B,86.98487300752116,69.5278344432397,4.349243650376058,1.092140669534446,A,553.2583329477347,Incorrect,sub_003_day_23_data.csv,0,600,,Button-Switch at home,,,,,,,,,,,,,k
3,23,418,A,45.094635398428856,75.42175022827392,2.254731769921443,1.1847220821901483,A,580.5146660422906,Correct,sub_003_day_23_data.csv,1,600,,Button-Switch at home,,,,,,,,,,,,,k
3,23,419,A,41.450481127539035,71.69263183475002,2.0725240563769516,1.1261452274428418,A,1390.3895820258183,Correct,sub_003_day_23_data.csv,1,600,,Button-Switch at home,,,,,,,,,,,,,k
3,23,420,A,34.86066006989527,54.51453439206806,1.7430330034947632,0.8563123037999457,A,807.8813329921104,Correct,sub_003_day_23_data.csv,1,600,,Button-Switch at home,,,,,,,,,,,,,k
3,23,421,B,65.4565591276916,34.334475818077046,3.2728279563845804,0.5393246849746363,B,785.8260829816572,Correct,sub_003_day_23_data.csv,1,600,,Button-Switch at home,,,,,,,,,,,,,d
3,23,422,A,31.13886684038218,44.384506403751594,1.556943342019109,0.6971901962561756,A,804.2274990002625,Correct,sub_003_day_23_data.csv,1,600,,Button-Switch at home,,,,,,,,,,,,,k
3,23,423,B,83.63196143953658,61.44781305944579,4.181598071976829,0.9652199904335692,B,1282.145123986993,Correct,sub_003_day_23_data.csv,1,600,,Button-Switch at home,,,,,,,,,,,,,d
3,23,424,A,17.428983917668845,31.795339151935803,0.8714491958834423,0.4994400194905871,A,570.8637490170076,Correct,sub_003_day_23_data.csv,1,600,,Button-Switch at home,,,,,,,,,,,,,k
3,23,425,B,73.7414889819302,49.97288449353148,3.68707444909651,0.7849722340178491,B,805.7081250008196,Correct,sub_003_day_23_data.csv,1,600,,Button-Switch at home,,,,,,,,,,,,,d
3,23,426,A,35.24770143781692,46.467455674526576,1.762385071890846,0.7299090868905102,A,764.3639570451342,Correct,sub_003_day_23_data.csv,1,600,,Button-Switch at home,,,,,,,,,,,,,k
3,23,427,B,84.1561005861959,60.316510160346915,4.207805029309795,0.9474495260496,B,868.7313320115209,Correct,sub_003_day_23_data.csv,1,600,,Button-Switch at home,,,,,,,,,,,,,d
3,23,428,A,35.589869904425,48.52064514888441,1.77949349522125,0.7621605117358625,A,671.5352489845827,Correct,sub_003_day_23_data.csv,1,600,,Button-Switch at home,,,,,,,,,,,,,k
3,23,429,B,40.19883557868806,13.519804706613437,2.009941778934403,0.2123685957213273,B,898.2093330123462,Correct,sub_003_day_23_data.csv,1,600,,Button-Switch at home,,,,,,,,,,,,,d
3,23,430,A,25.505999952692463,48.625368588696475,1.275299997634623,0.7638055036817236,A,771.8509159749374,Correct,sub_003_day_23_data.csv,1,600,,Button-Switch at home,,,,,,,,,,,,,k
3,23,431,A,52.43141287032542,69.76243407199186,2.6215706435162707,1.0958257518855596,A,664.1042490373366,Correct,sub_003_day_23_data.csv,1,600,,Button-Switch at home,,,,,,,,,,,,,k
3,23,432,A,51.991888596144335,61.69367628217235,2.599594429807217,0.9690820009050974,B,1384.4022909761406,Incorrect,sub_003_day_23_data.csv,0,600,,Button-Switch at home,,,,,,,,,,,,,d
3,23,433,B,82.50619487991446,52.57779005581233,4.125309743995723,0.8258899949066325,B,694.4109160103835,Correct,sub_003_day_23_data.csv,1,600,,Button-Switch at home,,,,,,,,,,,,,d
3,23,434,B,32.88025495225345,15.800731661569516,1.6440127476126725,0.2481973125466521,B,731.5866659628227,Correct,sub_003_day_23_data.csv,1,600,,Button-Switch at home,,,,,,,,,,,,,d
3,23,435,A,18.532889727087557,32.88759929726584,0.926644486354378,0.5165972017324759,A,613.5121659608558,Correct,sub_003_day_23_data.csv,1,600,,Button-Switch at home,,,,,,,,,,,,,k
3,23,436,A,32.232078788972004,42.113367203251066,1.6116039394486,0.6615152251183144,A,812.6748740323819,Correct,sub_003_day_23_data.csv,1,600,,Button-Switch at home,,,,,,,,,,,,,k
3,23,437,B,61.91020050420686,40.72699905196829,3.095510025210343,0.6397382051221103,B,620.1281659887172,Correct,sub_003_day_23_data.csv,1,600,,Button-Switch at home,,,,,,,,,,,,,d
3,23,438,A,53.53372741658349,77.16904425075046,2.676686370829174,1.2121685125135166,A,590.770582028199,Correct,sub_003_day_23_data.csv,1,600,,Button-Switch at home,,,,,,,,,,,,,k
3,23,439,B,71.990342566289,50.49622628027052,3.59951712831445,0.7931928675805285,B,599.3559989728965,Correct,sub_003_day_23_data.csv,1,600,,Button-Switch at home,,,,,,,,,,,,,d
3,23,440,B,55.0126491614149,33.540158797251095,2.7506324580707453,0.5268475823883955,B,602.6185829541646,Correct,sub_003_day_23_data.csv,1,600,,Button-Switch at home,,,,,,,,,,,,,d
3,23,441,A,64.28900804754474,75.06989351091163,3.2144504023772367,1.17919512979824,A,929.4357909820974,Correct,sub_003_day_23_data.csv,1,600,,Button-Switch at home,,,,,,,,,,,,,k
3,23,442,B,49.6351753590737,41.03929466721142,2.4817587679536848,0.6446437331750908,B,1410.084208007902,Correct,sub_003_day_23_data.csv,1,600,,Button-Switch at home,,,,,,,,,,,,,d
3,23,443,A,55.52300142768393,71.4682979812986,2.776150071384196,1.1226213995130696,A,1385.3845829726197,Correct,sub_003_day_23_data.csv,1,600,,Button-Switch at home,,,,,,,,,,,,,k
3,23,444,B,44.88687885957308,21.49787671923252,2.244343942978654,0.3376878578445996,B,496.8495820066891,Correct,sub_003_day_23_data.csv,1,600,,Button-Switch at home,,,,,,,,,,,,,d
3,23,445,B,65.29217344203286,48.828792825992615,3.264608672101643,0.7670008841289818,B,714.6266240160912,Correct,sub_003_day_23_data.csv,1,600,,Button-Switch at home,,,,,,,,,,,,,d
3,23,446,B,79.35330691845381,59.28828323938751,3.9676653459226903,0.9312981753440532,B,519.2106659524143,Correct,sub_003_day_23_data.csv,1,600,,Button-Switch at home,,,,,,,,,,,,,d
3,23,447,B,56.56020042098493,44.436859237536815,2.8280100210492463,0.698012552646247,B,1272.534123971127,Correct,sub_003_day_23_data.csv,1,600,,Button-Switch at home,,,,,,,,,,,,,d
3,23,448,A,37.057780931168466,46.588975484220256,1.8528890465584231,0.7318179155975065,A,1802.378415944986,Correct,sub_003_day_23_data.csv,1,600,,Button-Switch at home,,,,,,,,,,,,,k
3,23,449,B,73.19421913503416,54.45653322372273,3.659710956751708,0.855401223578079,B,510.20820799749345,Correct,sub_003_day_23_data.csv,1,600,,Button-Switch at home,,,,,,,,,,,,,d
3,23,450,B,85.14153949261525,64.41685299469782,4.257076974630762,1.0118575606775817,B,654.8505820101127,Correct,sub_003_day_23_data.csv,1,600,,Button-Switch at home,,,,,,,,,,,,,d
3,23,451,B,60.082257442980094,27.32457647115821,3.0041128721490047,0.4292134435212156,B,721.1681240005419,Correct,sub_003_day_23_data.csv,1,600,,Button-Switch at home,,,,,,,,,,,,,d
3,23,452,A,39.33297301321328,63.75784637123965,1.966648650660664,1.0015059088429654,A,547.3859159974381,Correct,sub_003_day_23_data.csv,1,600,,Button-Switch at home,,,,,,,,,,,,,k
3,23,453,B,64.67865699236064,35.88921170305831,3.233932849618032,0.5637464191472841,B,496.9794999924488,Correct,sub_003_day_23_data.csv,1,600,,Button-Switch at home,,,,,,,,,,,,,d
3,23,454,B,79.21796026247469,53.68371216099523,3.9608980131237344,0.8432617787120583,B,473.7654569908045,Correct,sub_003_day_23_data.csv,1,600,,Button-Switch at home,,,,,,,,,,,,,d
3,23,455,A,36.275988276211905,52.94018676827432,1.8137994138105953,0.8315825091544108,A,929.3631239561364,Correct,sub_003_day_23_data.csv,1,600,,Button-Switch at home,,,,,,,,,,,,,k
3,23,456,A,53.795604155496065,78.4402170927764,2.689780207774803,1.2321360488232742,A,1397.4917910527438,Correct,sub_003_day_23_data.csv,1,600,,Button-Switch at home,,,,,,,,,,,,,k
3,23,457,A,40.7956189953846,61.87159865008326,2.03978094976923,0.9718767989247888,A,745.0574990361929,Correct,sub_003_day_23_data.csv,1,600,,Button-Switch at home,,,,,,,,,,,,,k
3,23,458,A,62.66452809451269,81.2680694068033,3.1332264047256344,1.2765558490991933,A,1023.5858330270275,Correct,sub_003_day_23_data.csv,1,600,,Button-Switch at home,,,,,,,,,,,,,k
3,23,459,B,58.52245812331007,32.503594556400756,2.9261229061655034,0.510565269368249,B,840.7847489579581,Correct,sub_003_day_23_data.csv,1,600,,Button-Switch at home,,,,,,,,,,,,,d
3,23,460,A,23.41285080519767,39.72747320399597,1.1706425402598837,0.6240376898167955,A,905.7255830266512,Correct,sub_003_day_23_data.csv,1,600,,Button-Switch at home,,,,,,,,,,,,,k
3,23,461,A,49.06964537593976,64.67556368273895,2.453482268796988,1.0159213786623575,A,2413.5482909623533,Correct,sub_003_day_23_data.csv,1,600,,Button-Switch at home,,,,,,,,,,,,,k
3,23,462,A,32.423621770681756,49.24521163546634,1.6211810885340878,0.7735419754922783,A,1577.008416003082,Correct,sub_003_day_23_data.csv,1,600,,Button-Switch at home,,,,,,,,,,,,,k
3,23,463,A,39.87964821537643,67.1759149273774,1.993982410768821,1.055196804170109,A,2107.412081968505,Correct,sub_003_day_23_data.csv,1,600,,Button-Switch at home,,,,,,,,,,,,,k
3,23,464,B,69.93170206089572,58.80307046348934,3.4965851030447856,0.9236764708831052,B,612.6916659995914,Correct,sub_003_day_23_data.csv,1,600,,Button-Switch at home,,,,,,,,,,,,,d
3,23,465,B,56.81723237702631,33.466654162421165,2.8408616188513154,0.525692974284463,B,741.2823329796083,Correct,sub_003_day_23_data.csv,1,600,,Button-Switch at home,,,,,,,,,,,,,d
3,23,466,B,48.88498714181373,23.036081721153984,2.444249357090686,0.3618499255133574,B,760.7017909758724,Correct,sub_003_day_23_data.csv,1,600,,Button-Switch at home,,,,,,,,,,,,,d
3,23,467,B,88.1205301627295,63.84499067187578,4.406026508136475,1.002874768316369,B,614.0803330345079,Correct,sub_003_day_23_data.csv,1,600,,Button-Switch at home,,,,,,,,,,,,,d
3,23,468,A,47.596741442130536,54.55235707378861,2.3798370721065267,0.8569064210951075,A,1078.0252080294304,Correct,sub_003_day_23_data.csv,1,600,,Button-Switch at home,,,,,,,,,,,,,k
3,23,469,A,53.13467905610575,70.60180529711452,2.656733952805288,1.1090105642579595,A,1030.452249047812,Correct,sub_003_day_23_data.csv,1,600,,Button-Switch at home,,,,,,,,,,,,,k
3,23,470,B,65.59081717188455,40.83104717792136,3.2795408585942276,0.6413725892626799,B,1623.3902070089243,Correct,sub_003_day_23_data.csv,1,600,,Button-Switch at home,,,,,,,,,,,,,d
3,23,471,B,49.63887474650795,37.10583972712104,2.4819437373253974,0.5828571674600186,B,1192.0334579772316,Correct,sub_003_day_23_data.csv,1,600,,Button-Switch at home,,,,,,,,,,,,,d
3,23,472,A,55.113511799458735,75.0935812689304,2.7556755899729364,1.179567216231099,A,989.2134580295532,Correct,sub_003_day_23_data.csv,1,600,,Button-Switch at home,,,,,,,,,,,,,k
3,23,473,B,54.75621150948062,28.99696766898635,2.737810575474031,0.4554833030263413,B,1270.2449159696698,Correct,sub_003_day_23_data.csv,1,600,,Button-Switch at home,,,,,,,,,,,,,d
3,23,474,B,64.35179237096408,55.13814212763796,3.2175896185482036,0.8661079112038865,B,811.162083002273,Correct,sub_003_day_23_data.csv,1,600,,Button-Switch at home,,,,,,,,,,,,,d
3,23,475,B,56.33123493888689,37.267823665637955,2.816561746944344,0.5854016052162402,B,650.8793749962933,Correct,sub_003_day_23_data.csv,1,600,,Button-Switch at home,,,,,,,,,,,,,d
3,23,476,A,64.9262707102822,76.23470396753385,3.24631353551411,1.1974919296649849,A,1024.1153750102967,Correct,sub_003_day_23_data.csv,1,600,,Button-Switch at home,,,,,,,,,,,,,k
3,23,477,B,60.675525164700446,36.63588856627193,3.0337762582350223,0.575475191887671,B,531.0501239728183,Correct,sub_003_day_23_data.csv,1,600,,Button-Switch at home,,,,,,,,,,,,,d
3,23,478,A,30.98753896885797,42.86029643964616,1.5493769484428983,0.6732479621273657,A,1593.6344569781795,Correct,sub_003_day_23_data.csv,1,600,,Button-Switch at home,,,,,,,,,,,,,k
3,23,479,A,52.53262461169095,67.60930345082578,2.6266312305845476,1.0620044551771868,A,1347.70458296407,Correct,sub_003_day_23_data.csv,1,600,,Button-Switch at home,,,,,,,,,,,,,k
3,23,480,B,68.08049467792685,50.56467714156912,3.404024733896342,0.7942680911954665,B,1078.9580830023624,Correct,sub_003_day_23_data.csv,1,600,,Button-Switch at home,,,,,,,,,,,,,d
3,23,481,A,47.87666507364092,61.203877589783296,2.3938332536820464,0.9613882610363608,A,1280.864916043356,Correct,sub_003_day_23_data.csv,1,600,,Button-Switch at home,,,,,,,,,,,,,k
3,23,482,B,44.74413305203276,29.061459646547917,2.237206652601638,0.4564963406409558,B,1257.6899580308236,Correct,sub_003_day_23_data.csv,1,600,,Button-Switch at home,,,,,,,,,,,,,d
3,23,483,B,84.50553154153192,57.53312193359757,4.225276577076596,0.9037281660233796,B,1448.985041002743,Correct,sub_003_day_23_data.csv,1,600,,Button-Switch at home,,,,,,,,,,,,,d
3,23,484,A,39.74576183352898,51.97532561643766,1.987288091676449,0.8164265056226896,A,1167.3242910183037,Correct,sub_003_day_23_data.csv,1,600,,Button-Switch at home,,,,,,,,,,,,,k
3,23,485,A,32.11136563475081,53.755712369841106,1.6055682817375407,0.844392755347894,A,718.9250409719534,Correct,sub_003_day_23_data.csv,1,600,,Button-Switch at home,,,,,,,,,,,,,k
3,23,486,B,45.92512938014035,35.530954648408084,2.2962564690070173,0.5581189304923547,A,1969.6866239537485,Incorrect,sub_003_day_23_data.csv,0,600,,Button-Switch at home,,,,,,,,,,,,,k
3,23,487,B,60.85609144195685,42.80794839139178,3.0428045720978423,0.6724256809082371,B,1004.4239989947528,Correct,sub_003_day_23_data.csv,1,600,,Button-Switch at home,,,,,,,,,,,,,d
3,23,488,B,61.99923415206318,43.34493251553646,3.099961707603159,0.6808606078057735,B,1433.2705410197375,Correct,sub_003_day_23_data.csv,1,600,,Button-Switch at home,,,,,,,,,,,,,d
3,23,489,A,29.3698315527988,62.354560623023694,1.46849157763994,0.9794631478555532,A,1246.716000023298,Correct,sub_003_day_23_data.csv,1,600,,Button-Switch at home,,,,,,,,,,,,,k
3,23,490,B,84.15130868128419,67.08018871893599,4.20756543406421,1.053693140404131,B,1382.006332045421,Correct,sub_003_day_23_data.csv,1,600,,Button-Switch at home,,,,,,,,,,,,,d
3,23,491,A,48.47944039208659,69.38645895804834,2.4239720196043293,1.0899199486060718,A,1590.1311240158975,Correct,sub_003_day_23_data.csv,1,600,,Button-Switch at home,,,,,,,,,,,,,k
3,23,492,B,32.51194495651529,11.545732805620602,1.6255972478257648,0.1813599468122418,B,1318.1538329808973,Correct,sub_003_day_23_data.csv,1,600,,Button-Switch at home,,,,,,,,,,,,,d
3,23,493,B,54.7735791457091,33.71268638353834,2.738678957285454,0.5295576393765035,B,986.7078750394284,Correct,sub_003_day_23_data.csv,1,600,,Button-Switch at home,,,,,,,,,,,,,d
3,23,494,A,53.67417080157246,77.98317106028139,2.683708540078623,1.2249567865330806,A,831.975000037346,Correct,sub_003_day_23_data.csv,1,600,,Button-Switch at home,,,,,,,,,,,,,k
3,23,495,A,38.08899905229244,66.51727185111122,1.9044499526146224,1.0448508629214308,A,692.1332079800777,Correct,sub_003_day_23_data.csv,1,600,,Button-Switch at home,,,,,,,,,,,,,k
3,23,496,B,37.567351116085,21.20227911521781,1.87836755580425,0.3330446215386428,B,891.9511240092106,Correct,sub_003_day_23_data.csv,1,600,,Button-Switch at home,,,,,,,,,,,,,d
3,23,497,B,58.334321621200814,26.71292411322339,2.916716081060041,0.4196056307500211,B,1026.6954569960944,Correct,sub_003_day_23_data.csv,1,600,,Button-Switch at home,,,,,,,,,,,,,d
3,23,498,B,62.71529053242932,34.02574413089741,3.135764526621466,0.5344751389727667,B,651.0613330174237,Correct,sub_003_day_23_data.csv,1,600,,Button-Switch at home,,,,,,,,,,,,,d
3,23,499,B,59.52112471841957,34.394385209760685,2.9760562359209786,0.540265739498608,B,705.5234580184333,Correct,sub_003_day_23_data.csv,1,600,,Button-Switch at home,,,,,,,,,,,,,d
3,23,500,B,82.66010687226895,57.85588075645404,4.133005343613448,0.9087980497572156,B,1597.0434580231083,Correct,sub_003_day_23_data.csv,1,600,,Button-Switch at home,,,,,,,,,,,,,d
3,23,501,B,30.879421283860644,13.786848886898609,1.5439710641930322,0.2165633158961664,B,911.5368740167468,Correct,sub_003_day_23_data.csv,1,600,,Button-Switch at home,,,,,,,,,,,,,d
3,23,502,B,55.09009116894272,41.70297885348678,2.754504558447136,0.6550688599946229,B,1730.9336659964174,Correct,sub_003_day_23_data.csv,1,600,,Button-Switch at home,,,,,,,,,,,,,d
3,23,503,B,49.4945569545412,32.36190820602945,2.47472784772706,0.5083396653810468,B,792.5622910261154,Correct,sub_003_day_23_data.csv,1,600,,Button-Switch at home,,,,,,,,,,,,,d
3,23,504,A,30.51093394082192,61.29789149725434,1.5255466970410962,0.9628650280415924,A,960.2299580001272,Correct,sub_003_day_23_data.csv,1,600,,Button-Switch at home,,,,,,,,,,,,,k
3,23,505,A,57.53793019615861,72.22814321295736,2.876896509807931,1.1345570205012918,A,1219.5593329961412,Correct,sub_003_day_23_data.csv,1,600,,Button-Switch at home,,,,,,,,,,,,,k
3,23,506,B,68.81051355881806,46.71117800456167,3.440525677940903,0.7337374682982802,B,953.3813740126787,Correct,sub_003_day_23_data.csv,1,600,,Button-Switch at home,,,,,,,,,,,,,d
3,23,507,A,26.261116607334987,49.22254192034049,1.3130558303667492,0.7731858804397864,A,1378.2114160130732,Correct,sub_003_day_23_data.csv,1,600,,Button-Switch at home,,,,,,,,,,,,,k
3,23,508,B,41.468351604983845,27.015633529041295,2.0734175802491923,0.4243605791345511,B,895.3809160157107,Correct,sub_003_day_23_data.csv,1,600,,Button-Switch at home,,,,,,,,,,,,,d
3,23,509,A,27.49064649894899,45.410996619262306,1.3745323249474497,0.7133142668563269,A,1270.8444989984855,Correct,sub_003_day_23_data.csv,1,600,,Button-Switch at home,,,,,,,,,,,,,k
3,23,510,B,50.19641493119603,42.60358545479718,2.509820746559802,0.6692155554068789,B,1045.0019990094006,Correct,sub_003_day_23_data.csv,1,600,,Button-Switch at home,,,,,,,,,,,,,d
3,23,511,B,82.31893233058746,62.51671983030302,4.115946616529373,0.9820103387270566,A,1255.512956995517,Incorrect,sub_003_day_23_data.csv,0,600,,Button-Switch at home,,,,,,,,,,,,,k
3,23,512,B,78.37583894344849,65.52711175863871,3.918791947172424,1.0292974645594837,B,623.6554580391385,Correct,sub_003_day_23_data.csv,1,600,,Button-Switch at home,,,,,,,,,,,,,d
3,23,513,B,73.18275240758689,60.67459919186146,3.6591376203793446,0.9530743754032858,B,1021.1747079738416,Correct,sub_003_day_23_data.csv,1,600,,Button-Switch at home,,,,,,,,,,,,,d
3,23,514,B,78.78254728174447,60.39968682415113,3.939127364087223,0.9487560620293872,B,570.8539999905042,Correct,sub_003_day_23_data.csv,1,600,,Button-Switch at home,,,,,,,,,,,,,d
3,23,515,B,38.28477730938062,19.32657959447906,1.914238865469031,0.3035812023651691,B,1250.5810830043629,Correct,sub_003_day_23_data.csv,1,600,,Button-Switch at home,,,,,,,,,,,,,d
3,23,516,B,56.265415363866445,42.500539407481746,2.813270768193322,0.6675969118807408,B,688.8951660366729,Correct,sub_003_day_23_data.csv,1,600,,Button-Switch at home,,,,,,,,,,,,,d
3,23,517,A,31.9351870221507,58.42345303828354,1.596759351107535,0.9177134543120992,A,1897.907081991434,Correct,sub_003_day_23_data.csv,1,600,,Button-Switch at home,,,,,,,,,,,,,k
3,23,518,A,37.31828414337541,49.12647390255434,1.8659142071687704,0.771676847545177,A,1206.2642069649885,Correct,sub_003_day_23_data.csv,1,600,,Button-Switch at home,,,,,,,,,,,,,k
3,23,519,B,60.18677638271231,30.37293536700689,3.0093388191356154,0.4770969530847322,B,883.7756249704398,Correct,sub_003_day_23_data.csv,1,600,,Button-Switch at home,,,,,,,,,,,,,d
3,23,520,B,37.93145097547024,26.041196137708873,1.896572548773512,0.4090541523845854,B,1434.336498961784,Correct,sub_003_day_23_data.csv,1,600,,Button-Switch at home,,,,,,,,,,,,,d
3,23,521,B,45.45044132439464,28.15791610625191,2.272522066219732,0.4423035118989936,B,1280.0725830020383,Correct,sub_003_day_23_data.csv,1,600,,Button-Switch at home,,,,,,,,,,,,,d
3,23,522,A,43.239887501091346,71.74440945939288,2.1619943750545674,1.1269585484688338,A,1387.941999011673,Correct,sub_003_day_23_data.csv,1,600,,Button-Switch at home,,,,,,,,,,,,,k
3,23,523,A,66.01865389932932,85.31857686237551,3.300932694966466,1.340181071427875,A,1534.5643329783345,Correct,sub_003_day_23_data.csv,1,600,,Button-Switch at home,,,,,,,,,,,,,k
3,23,524,B,42.112992746079655,30.354703752591657,2.105649637303983,0.4768105715551823,B,594.6563319885172,Correct,sub_003_day_23_data.csv,1,600,,Button-Switch at home,,,,,,,,,,,,,d
3,23,525,A,21.06253414843783,46.10755643409264,1.0531267074218915,0.7242558028416113,A,1318.9201249624602,Correct,sub_003_day_23_data.csv,1,600,,Button-Switch at home,,,,,,,,,,,,,k
3,23,526,A,49.174218787980045,72.72454665904343,2.458710939399002,1.1423545075984949,A,887.5327910063788,Correct,sub_003_day_23_data.csv,1,600,,Button-Switch at home,,,,,,,,,,,,,k
3,23,527,B,75.13312458256219,55.96888404847984,3.75665622912811,0.8791571747816163,B,1071.149208000861,Correct,sub_003_day_23_data.csv,1,600,,Button-Switch at home,,,,,,,,,,,,,d
3,23,528,A,37.31811954741816,69.64662994810749,1.8659059773709077,1.094006704961307,A,979.4789990410208,Correct,sub_003_day_23_data.csv,1,600,,Button-Switch at home,,,,,,,,,,,,,k
3,23,529,B,39.93375944126583,23.742913204063367,1.9966879720632915,0.3729528084835278,B,765.9619160112925,Correct,sub_003_day_23_data.csv,1,600,,Button-Switch at home,,,,,,,,,,,,,d
3,23,530,B,44.952247232719145,32.830045126349106,2.2476123616359573,0.5156931429297987,B,1100.8894569822587,Correct,sub_003_day_23_data.csv,1,600,,Button-Switch at home,,,,,,,,,,,,,d
3,23,531,B,69.09421154260552,59.78321262926083,3.4547105771302764,0.939072508020412,A,959.4070409657434,Incorrect,sub_003_day_23_data.csv,0,600,,Button-Switch at home,,,,,,,,,,,,,k
3,23,532,B,79.93440852909859,62.54815934879436,3.99672042645493,0.9825041895286803,B,632.3408739990555,Correct,sub_003_day_23_data.csv,1,600,,Button-Switch at home,,,,,,,,,,,,,d
3,23,533,B,63.40562039071544,53.46227754961993,3.170281019535772,0.8397834919703225,B,771.82016603183,Correct,sub_003_day_23_data.csv,1,600,,Button-Switch at home,,,,,,,,,,,,,d
3,23,534,B,48.360519444060955,38.58706722541482,2.418025972203048,0.6061242345946933,B,583.4152909810655,Correct,sub_003_day_23_data.csv,1,600,,Button-Switch at home,,,,,,,,,,,,,d
3,23,535,B,48.54106180236565,26.13608690234399,2.4270530901182825,0.4105446930299414,B,619.8474990087561,Correct,sub_003_day_23_data.csv,1,600,,Button-Switch at home,,,,,,,,,,,,,d
3,23,536,B,63.53643228553913,35.00835773701322,3.1768216142769563,0.5499099974042206,B,661.8205409613438,Correct,sub_003_day_23_data.csv,1,600,,Button-Switch at home,,,,,,,,,,,,,d
3,23,537,B,39.330467133951075,29.37337307830041,1.9665233566975535,0.4613958653697039,B,566.702832991723,Correct,sub_003_day_23_data.csv,1,600,,Button-Switch at home,,,,,,,,,,,,,d
3,23,538,A,22.715632815799836,47.03304333721319,1.135781640789992,0.7387933171207968,B,813.99383302778,Incorrect,sub_003_day_23_data.csv,0,600,,Button-Switch at home,,,,,,,,,,,,,d
3,23,539,A,58.246981647439775,85.24899925120158,2.9123490823719886,1.3390881488672834,A,1318.8677500002086,Correct,sub_003_day_23_data.csv,1,600,,Button-Switch at home,,,,,,,,,,,,,k
3,23,540,B,45.662553418201846,31.967239320418862,2.2831276709100923,0.5021402210228734,B,916.0957499989308,Correct,sub_003_day_23_data.csv,1,600,,Button-Switch at home,,,,,,,,,,,,,d
3,23,541,B,57.1863475141506,48.74340568203018,2.85931737570753,0.765659626008065,B,3005.0548739964142,Correct,sub_003_day_23_data.csv,1,600,,Button-Switch at home,,,,,,,,,,,,,d
3,23,542,A,27.635418200637123,40.511198572500206,1.381770910031856,0.6363484191174198,A,621.4392080437392,Correct,sub_003_day_23_data.csv,1,600,,Button-Switch at home,,,,,,,,,,,,,k
3,23,543,B,64.65022158955875,35.21988594917822,3.232511079477938,0.5532326747910434,B,679.1834569885395,Correct,sub_003_day_23_data.csv,1,600,,Button-Switch at home,,,,,,,,,,,,,d
3,23,544,A,41.00115668434332,61.75407490559883,2.0500578342171663,0.9700307402633151,A,1384.8417080007491,Correct,sub_003_day_23_data.csv,1,600,,Button-Switch at home,,,,,,,,,,,,,k
3,23,545,A,28.20660398332797,49.03630886937883,1.4103301991663983,0.7702605385160026,A,1425.644498958718,Correct,sub_003_day_23_data.csv,1,600,,Button-Switch at home,,,,,,,,,,,,,k
3,23,546,B,57.99968103278519,47.37538192758651,2.899984051639259,0.7441707591235821,B,799.6154570137151,Correct,sub_003_day_23_data.csv,1,600,,Button-Switch at home,,,,,,,,,,,,,d
3,23,547,A,61.530100518913095,73.16887242079933,3.0765050259456546,1.14933396034316,A,1100.3777079749852,Correct,sub_003_day_23_data.csv,1,600,,Button-Switch at home,,,,,,,,,,,,,k
3,23,548,B,70.29806409967307,47.120641637762894,3.5149032049836535,0.7401693080081662,B,594.1103749792092,Correct,sub_003_day_23_data.csv,1,600,,Button-Switch at home,,,,,,,,,,,,,d
3,23,549,A,12.24893365556657,39.49223369678017,0.6124466827783286,0.6203425562782793,A,1091.532957041636,Correct,sub_003_day_23_data.csv,1,600,,Button-Switch at home,,,,,,,,,,,,,k
3,23,550,A,26.133508292833515,56.09458671373384,1.306675414641676,0.8811317076301093,A,1031.1095830402337,Correct,sub_003_day_23_data.csv,1,600,,Button-Switch at home,,,,,,,,,,,,,k
3,23,551,A,48.99680284669148,72.14280600414874,2.449840142334574,1.1332165467599364,A,1090.3938739793375,Correct,sub_003_day_23_data.csv,1,600,,Button-Switch at home,,,,,,,,,,,,,k
3,23,552,A,57.69051749884706,85.13842843126724,2.884525874942353,1.3373513064892475,A,939.7322910372168,Correct,sub_003_day_23_data.csv,1,600,,Button-Switch at home,,,,,,,,,,,,,k
3,23,553,A,33.10469708068457,47.12251038523702,1.6552348540342283,0.7401986622248468,A,1169.181082979776,Correct,sub_003_day_23_data.csv,1,600,,Button-Switch at home,,,,,,,,,,,,,k
3,23,554,B,54.23605870351799,27.58682380567673,2.7118029351759,0.4333328150189501,B,1423.7538329907693,Correct,sub_003_day_23_data.csv,1,600,,Button-Switch at home,,,,,,,,,,,,,d
