subject,day,trial,cat,x,y,xt,yt,resp,rt,fb,f_name,acc,n_trials,block,session_type,ns_left_digit,ns_right_digit,ns_left_size,ns_right_size,ns_congruent,ns_cue,ns_correct_side,ns_resp,ns_rt,ns_fb,acc_stroop,acc_stroop_mean,resp_key
3,18,3900,B,68.70776901127155,44.930653635268456,3.4353884505635777,0.7057690569077346,B,467.1706659864867,Correct,sub_003_day_18_data.csv,1,300,156.0,Training at home,,,,,,,,,,,,,
3,18,3901,A,57.455929805704336,84.3287997156319,2.872796490285217,1.3246336883633711,A,458.8105830043787,Correct,sub_003_day_18_data.csv,1,300,156.0,Training at home,,,,,,,,,,,,,
3,18,3902,A,26.37954945292931,47.33906814766759,1.3189774726464656,0.7436003436024955,A,700.3500410064589,Correct,sub_003_day_18_data.csv,1,300,156.0,Training at home,,,,,,,,,,,,,
3,18,3903,B,49.37737083506785,42.09367982014118,2.4688685417533924,0.6612059764275823,A,2384.7249160025967,Incorrect,sub_003_day_18_data.csv,0,300,156.0,Training at home,,,,,,,,,,,,,
3,18,3904,B,54.10765938661841,37.973410555841,2.7053829693309206,0.596484938169896,B,620.6506239977898,Correct,sub_003_day_18_data.csv,1,300,156.0,Training at home,,,,,,,,,,,,,
3,18,3905,A,33.03944042368449,52.84275108581568,1.6519720211842244,0.830051993033363,A,611.0214579966851,Correct,sub_003_day_18_data.csv,1,300,156.0,Training at home,,,,,,,,,,,,,
3,18,3906,B,31.051262275923943,15.828773289622704,1.5525631137961973,0.2486377894100851,B,716.4562079997268,Correct,sub_003_day_18_data.csv,1,300,156.0,Training at home,,,,,,,,,,,,,
3,18,3907,B,44.60451330105007,32.25090182447019,2.2302256650525036,0.506595981217006,B,438.9627080090577,Correct,sub_003_day_18_data.csv,1,300,156.0,Training at home,,,,,,,,,,,,,
3,18,3908,B,69.73292201259804,55.43347775519939,3.4866461006299017,0.8707470323933381,B,950.70079099969,Correct,sub_003_day_18_data.csv,1,300,156.0,Training at home,,,,,,,,,,,,,
3,18,3909,B,39.31225408586002,23.91974045367628,1.965612704293001,0.37573040442522,B,1006.086083012633,Correct,sub_003_day_18_data.csv,1,300,156.0,Training at home,,,,,,,,,,,,,
3,18,3910,A,22.4005538558515,36.2793070662691,1.120027692792575,0.5698740227835964,A,720.817708002869,Correct,sub_003_day_18_data.csv,1,300,156.0,Training at home,,,,,,,,,,,,,
3,18,3911,B,54.303909062050195,44.812094354618054,2.7151954531025098,0.7039067320822036,B,513.2400409929687,Correct,sub_003_day_18_data.csv,1,300,156.0,Training at home,,,,,,,,,,,,,
3,18,3912,A,30.88964921855458,39.89301997685117,1.544482460927729,0.6266380924439323,A,613.1470410036854,Correct,sub_003_day_18_data.csv,1,300,156.0,Training at home,,,,,,,,,,,,,
3,18,3913,A,27.925945028317685,44.56257838314356,1.3962972514158845,0.6999873443675156,A,610.6712909968337,Correct,sub_003_day_18_data.csv,1,300,156.0,Training at home,,,,,,,,,,,,,
3,18,3914,A,37.547935906504435,62.84348045987176,1.877396795325222,0.9871430826937342,A,602.6747500000056,Correct,sub_003_day_18_data.csv,1,300,156.0,Training at home,,,,,,,,,,,,,
3,18,3915,A,44.44461835129044,68.48872911666659,2.222230917564522,1.0758184412331055,A,512.1448330028215,Correct,sub_003_day_18_data.csv,1,300,156.0,Training at home,,,,,,,,,,,,,
3,18,3916,B,42.053580001073925,27.87582341063038,2.1026790000536963,0.4378724101980138,B,731.2570829963079,Correct,sub_003_day_18_data.csv,1,300,156.0,Training at home,,,,,,,,,,,,,
3,18,3917,B,47.21690557546465,35.7583523728927,2.3608452787732324,0.5616908855957743,B,512.9513749998296,Correct,sub_003_day_18_data.csv,1,300,156.0,Training at home,,,,,,,,,,,,,
3,18,3918,A,54.951088340118446,72.99234366901293,2.747554417005922,1.1465610531943624,A,546.2184170028195,Correct,sub_003_day_18_data.csv,1,300,156.0,Training at home,,,,,,,,,,,,,
3,18,3919,B,57.63918775633162,50.4243891003254,2.8819593878165812,0.7920644517966775,B,426.3682080054423,Correct,sub_003_day_18_data.csv,1,300,156.0,Training at home,,,,,,,,,,,,,
3,18,3920,A,41.41821982369788,52.78250184908141,2.070910991184894,0.8291056002358191,A,1473.7727920000907,Correct,sub_003_day_18_data.csv,1,300,156.0,Training at home,,,,,,,,,,,,,
3,18,3921,A,53.20834923931296,71.1818889116778,2.660417461965648,1.1181224963678589,A,656.622458001948,Correct,sub_003_day_18_data.csv,1,300,156.0,Training at home,,,,,,,,,,,,,
3,18,3922,B,39.82368360077477,29.176438761891912,1.9911841800387384,0.4583024283613606,B,421.733375012991,Correct,sub_003_day_18_data.csv,1,300,156.0,Training at home,,,,,,,,,,,,,
3,18,3923,A,57.4393277463864,65.39270870277466,2.87196638731932,1.027186266294871,A,508.4229999920354,Correct,sub_003_day_18_data.csv,1,300,156.0,Training at home,,,,,,,,,,,,,
3,18,3924,A,54.72608894699724,64.53557501210841,2.736304447349862,1.013722441766164,A,456.7818749928847,Correct,sub_003_day_18_data.csv,1,300,156.0,Training at home,,,,,,,,,,,,,
3,18,3925,A,21.339699417147244,37.81807852260443,1.0669849708573622,0.5940449882974801,A,503.7462080072146,Correct,sub_003_day_18_data.csv,1,300,157.0,Training at home,,,,,,,,,,,,,
3,18,3926,B,66.47982676514505,54.73174704077731,3.3239913382572523,0.8597242721072045,B,459.9805420002667,Correct,sub_003_day_18_data.csv,1,300,157.0,Training at home,,,,,,,,,,,,,
3,18,3927,B,50.82465896772058,22.745968086202055,2.541232948386029,0.3572928311920013,B,413.8890000031097,Correct,sub_003_day_18_data.csv,1,300,157.0,Training at home,,,,,,,,,,,,,
3,18,3928,B,66.28260047275273,57.164574010246746,3.3141300236376368,0.8979390287809059,B,680.2396660059458,Correct,sub_003_day_18_data.csv,1,300,157.0,Training at home,,,,,,,,,,,,,
3,18,3929,B,64.78171462634975,47.42124919429489,3.2390857313174877,0.7448912404642387,B,410.352374005015,Correct,sub_003_day_18_data.csv,1,300,157.0,Training at home,,,,,,,,,,,,,
3,18,3930,A,64.4288000779538,75.71933172939677,3.2214400038976896,1.189396481479007,B,512.1882499952335,Incorrect,sub_003_day_18_data.csv,0,300,157.0,Training at home,,,,,,,,,,,,,
3,18,3931,B,74.38052012609944,51.24562015894764,3.719026006304972,0.8049643191000146,B,662.989500007825,Correct,sub_003_day_18_data.csv,1,300,157.0,Training at home,,,,,,,,,,,,,
3,18,3932,B,51.95456968705973,36.61822083312626,2.597728484352986,0.575197667784391,B,1165.5338740092702,Correct,sub_003_day_18_data.csv,1,300,157.0,Training at home,,,,,,,,,,,,,
3,18,3933,A,57.663178611960184,72.18227248130748,2.883158930598009,1.1338364847334614,A,870.8476659958251,Correct,sub_003_day_18_data.csv,1,300,157.0,Training at home,,,,,,,,,,,,,
3,18,3934,B,45.70604488235554,17.89223065555342,2.2853022441177773,0.2810505019191036,B,453.4026659966912,Correct,sub_003_day_18_data.csv,1,300,157.0,Training at home,,,,,,,,,,,,,
3,18,3935,B,58.67605198746513,49.67282183595727,2.933802599373257,0.7802588608145903,B,1378.90383299964,Correct,sub_003_day_18_data.csv,1,300,157.0,Training at home,,,,,,,,,,,,,
3,18,3936,B,78.76462975247983,60.80176458275696,3.938231487623992,0.9550718846924268,B,831.617957999697,Correct,sub_003_day_18_data.csv,1,300,157.0,Training at home,,,,,,,,,,,,,
3,18,3937,B,78.38544912566292,48.23049971365297,3.9192724562831462,0.7576029178968839,B,417.9146669921465,Correct,sub_003_day_18_data.csv,1,300,157.0,Training at home,,,,,,,,,,,,,
3,18,3938,A,41.844193141130646,49.04883660597278,2.0922096570565323,0.770457323742251,A,745.6949990009889,Correct,sub_003_day_18_data.csv,1,300,157.0,Training at home,,,,,,,,,,,,,
3,18,3939,A,10.201825622632985,34.249026192702175,0.5100912811316491,0.5379824453979878,A,545.5397489859024,Correct,sub_003_day_18_data.csv,1,300,157.0,Training at home,,,,,,,,,,,,,
3,18,3940,A,52.6190217063794,64.05205208667493,2.6309510853189697,1.0061272814142437,A,707.8006660012761,Correct,sub_003_day_18_data.csv,1,300,157.0,Training at home,,,,,,,,,,,,,
3,18,3941,A,41.64796478762069,59.54377716624776,2.082398239381034,0.9353114645623584,A,498.5343329899478,Correct,sub_003_day_18_data.csv,1,300,157.0,Training at home,,,,,,,,,,,,,
3,18,3942,B,81.32396267528739,56.07167246748507,4.066198133764369,0.8807717714917208,B,419.81308300455566,Correct,sub_003_day_18_data.csv,1,300,157.0,Training at home,,,,,,,,,,,,,
3,18,3943,B,62.53982065581917,39.981364226936584,3.1269910327909587,0.6280258006792087,B,488.4634999907575,Correct,sub_003_day_18_data.csv,1,300,157.0,Training at home,,,,,,,,,,,,,
3,18,3944,B,40.80370563989615,24.3547043515223,2.0401852819948076,0.3825628013554691,B,1056.2071239983195,Correct,sub_003_day_18_data.csv,1,300,157.0,Training at home,,,,,,,,,,,,,
3,18,3945,B,77.88088664318371,59.614393452027066,3.8940443321591856,0.9364207025854986,B,1016.8787500006148,Correct,sub_003_day_18_data.csv,1,300,157.0,Training at home,,,,,,,,,,,,,
3,18,3946,B,54.04854920628918,28.81059877953399,2.702427460314459,0.4525558273565352,B,608.0283329938538,Correct,sub_003_day_18_data.csv,1,300,157.0,Training at home,,,,,,,,,,,,,
3,18,3947,A,29.826803724039102,53.22557437160233,1.4913401862019553,0.8360653671446152,A,635.3858329966897,Correct,sub_003_day_18_data.csv,1,300,157.0,Training at home,,,,,,,,,,,,,
3,18,3948,B,38.05324890502,22.169919868730343,1.9026624452509997,0.3482442869513882,B,697.1596660005162,Correct,sub_003_day_18_data.csv,1,300,157.0,Training at home,,,,,,,,,,,,,
3,18,3949,B,67.90899312122431,56.53544341229214,3.3954496560612153,0.8880566684574922,B,674.3107910006074,Correct,sub_003_day_18_data.csv,1,300,157.0,Training at home,,,,,,,,,,,,,
3,18,3950,B,61.46534311743667,43.318730340635824,3.0732671558718336,0.6804490250048939,B,685.1416249992326,Correct,sub_003_day_18_data.csv,1,300,158.0,Training at home,,,,,,,,,,,,,
3,18,3951,A,62.25108503854199,84.7370922446209,3.112554251927099,1.3310471324113082,A,913.6366250022548,Correct,sub_003_day_18_data.csv,1,300,158.0,Training at home,,,,,,,,,,,,,
3,18,3952,B,46.66186520052871,23.811641182418235,2.333093260026436,0.3740323850430065,B,480.0684580113739,Correct,sub_003_day_18_data.csv,1,300,158.0,Training at home,,,,,,,,,,,,,
3,18,3953,A,34.783430478841446,60.6714788234995,1.7391715239420722,0.9530253607716735,A,528.9289160136832,Correct,sub_003_day_18_data.csv,1,300,158.0,Training at home,,,,,,,,,,,,,
3,18,3954,B,51.317409401000006,31.53193297700443,2.565870470050001,0.4953024449702143,B,928.7644989963156,Correct,sub_003_day_18_data.csv,1,300,158.0,Training at home,,,,,,,,,,,,,
3,18,3955,B,70.33002357711783,37.1184290290825,3.5165011788558913,0.5830549197527984,B,538.6801249987911,Correct,sub_003_day_18_data.csv,1,300,158.0,Training at home,,,,,,,,,,,,,
3,18,3956,B,63.65851689613568,51.54709824637496,3.1829258448067836,0.8096999258234143,B,549.4666239974322,Correct,sub_003_day_18_data.csv,1,300,158.0,Training at home,,,,,,,,,,,,,
3,18,3957,A,55.37345862135231,83.207294903894,2.7686729310676155,1.307017131975764,A,1141.5590830001747,Correct,sub_003_day_18_data.csv,1,300,158.0,Training at home,,,,,,,,,,,,,
3,18,3958,A,22.19239030499219,51.042171069349514,1.1096195152496096,0.8017685482737096,A,1033.2888330012793,Correct,sub_003_day_18_data.csv,1,300,158.0,Training at home,,,,,,,,,,,,,
3,18,3959,A,54.85493812235343,70.79926143780251,2.7427469061176715,1.1121121980629176,A,928.87991599855,Correct,sub_003_day_18_data.csv,1,300,158.0,Training at home,,,,,,,,,,,,,
3,18,3960,A,13.822927748520025,38.73770364263551,0.6911463874260011,0.6084904259032115,A,491.1715409980389,Correct,sub_003_day_18_data.csv,1,300,158.0,Training at home,,,,,,,,,,,,,
3,18,3961,A,66.07266128327613,79.05218527899007,3.3036330641638068,1.241748822613472,A,750.9935830021277,Correct,sub_003_day_18_data.csv,1,300,158.0,Training at home,,,,,,,,,,,,,
3,18,3962,B,68.33275946320842,58.22886663560016,3.416637973160421,0.9146568982463064,B,442.23354099085554,Correct,sub_003_day_18_data.csv,1,300,158.0,Training at home,,,,,,,,,,,,,
3,18,3963,B,40.141274045008515,17.592891487150787,2.007063702250426,0.2763484932571766,B,550.1285420032218,Correct,sub_003_day_18_data.csv,1,300,158.0,Training at home,,,,,,,,,,,,,
3,18,3964,B,82.727879225451,67.40828997049452,4.13639396127255,1.0588469428117806,A,727.9610830009915,Incorrect,sub_003_day_18_data.csv,0,300,158.0,Training at home,,,,,,,,,,,,,
3,18,3965,B,58.33842850474243,31.710832501936476,2.916921425237122,0.4981125921365004,B,495.30275000142865,Correct,sub_003_day_18_data.csv,1,300,158.0,Training at home,,,,,,,,,,,,,
3,18,3966,A,25.733347186187167,41.37620066024567,1.2866673593093585,0.6499358401384248,A,608.4354170016013,Correct,sub_003_day_18_data.csv,1,300,158.0,Training at home,,,,,,,,,,,,,
3,18,3967,B,40.276765177019584,29.540347835670445,2.013838258850979,0.464018698725147,B,495.3872080077417,Correct,sub_003_day_18_data.csv,1,300,158.0,Training at home,,,,,,,,,,,,,
3,18,3968,B,50.84391356683165,20.724283530410325,2.5421956783415824,0.3255362844502451,B,516.6562910017092,Correct,sub_003_day_18_data.csv,1,300,158.0,Training at home,,,,,,,,,,,,,
3,18,3969,A,22.475801939297178,50.50537653691798,1.1237900969648589,0.7933365994758392,A,550.8248330006609,Correct,sub_003_day_18_data.csv,1,300,158.0,Training at home,,,,,,,,,,,,,
3,18,3970,A,28.0876188909891,38.455407945747595,1.4043809445494548,0.6040561354657961,A,731.6156659944681,Correct,sub_003_day_18_data.csv,1,300,158.0,Training at home,,,,,,,,,,,,,
3,18,3971,B,53.00983445459446,43.61759280143242,2.6504917227297233,0.6851435455612558,B,424.56891600159,Correct,sub_003_day_18_data.csv,1,300,158.0,Training at home,,,,,,,,,,,,,
3,18,3972,B,54.24579397589253,31.664796480064147,2.712289698794627,0.4973894599959273,B,874.7823330049869,Correct,sub_003_day_18_data.csv,1,300,158.0,Training at home,,,,,,,,,,,,,
3,18,3973,B,35.94580372868549,11.370437614899764,1.7972901864342743,0.1786064163953507,B,564.289000001736,Correct,sub_003_day_18_data.csv,1,300,158.0,Training at home,,,,,,,,,,,,,
3,18,3974,B,79.53115759730579,48.65223296076333,3.976557879865289,0.7642274882513662,B,899.811540992232,Correct,sub_003_day_18_data.csv,1,300,158.0,Training at home,,,,,,,,,,,,,
3,18,3975,B,81.31589198705855,53.8683209785641,4.065794599352928,0.8461616072373697,B,414.43224999238737,Correct,sub_003_day_18_data.csv,1,300,159.0,Training at home,,,,,,,,,,,,,
3,18,3976,B,56.038381641362655,32.54670219240488,2.801919082068133,0.5112424025311698,B,685.1929580006981,Correct,sub_003_day_18_data.csv,1,300,159.0,Training at home,,,,,,,,,,,,,
3,18,3977,B,59.048799242278875,27.53435971233838,2.9524399621139437,0.432508710967905,B,464.1763749968959,Correct,sub_003_day_18_data.csv,1,300,159.0,Training at home,,,,,,,,,,,,,
3,18,3978,A,16.189012877907494,33.84889042336023,0.8094506438953747,0.531697127430972,A,592.7625830081524,Correct,sub_003_day_18_data.csv,1,300,159.0,Training at home,,,,,,,,,,,,,
3,18,3979,A,11.814531544378347,31.45171922031256,0.5907265772189174,0.4940424502265142,A,657.5851249945117,Correct,sub_003_day_18_data.csv,1,300,159.0,Training at home,,,,,,,,,,,,,
3,18,3980,A,67.51149238484358,89.80721150787227,3.3755746192421787,1.410688379562581,A,874.172665993683,Correct,sub_003_day_18_data.csv,1,300,159.0,Training at home,,,,,,,,,,,,,
3,18,3981,A,49.38789164592548,77.03020077651298,2.469394582296274,1.2099875643201998,A,512.6176670019049,Correct,sub_003_day_18_data.csv,1,300,159.0,Training at home,,,,,,,,,,,,,
3,18,3982,A,24.15232416466649,39.975497345997006,1.2076162082333244,0.6279336439289124,A,454.7198749933159,Correct,sub_003_day_18_data.csv,1,300,159.0,Training at home,,,,,,,,,,,,,
3,18,3983,B,47.87792603526632,26.796452210642343,2.393896301763316,0.4209176870361197,B,772.8741239989176,Correct,sub_003_day_18_data.csv,1,300,159.0,Training at home,,,,,,,,,,,,,
3,18,3984,B,48.64154081544543,39.54160971512817,2.432077040772272,0.6211181529608072,B,546.6197920031846,Correct,sub_003_day_18_data.csv,1,300,159.0,Training at home,,,,,,,,,,,,,
3,18,3985,A,22.41204393557487,47.74914749920086,1.1206021967787436,0.7500418549933243,A,872.77429200185,Correct,sub_003_day_18_data.csv,1,300,159.0,Training at home,,,,,,,,,,,,,
3,18,3986,B,75.07243176623419,57.82720745478184,3.75362158831171,0.9083476505877776,B,402.8964999888558,Correct,sub_003_day_18_data.csv,1,300,159.0,Training at home,,,,,,,,,,,,,
3,18,3987,B,63.279210001271494,53.51892777302017,3.163960500063575,0.8406733515986144,B,400.78429199638776,Correct,sub_003_day_18_data.csv,1,300,159.0,Training at home,,,,,,,,,,,,,
3,18,3988,A,20.520134501944963,37.02285280945823,1.0260067250972482,0.581553612005651,A,895.7612910016906,Correct,sub_003_day_18_data.csv,1,300,159.0,Training at home,,,,,,,,,,,,,
3,18,3989,B,47.456149252198585,36.6843324052561,2.37280746260993,0.5762361459309927,B,460.6343330087838,Correct,sub_003_day_18_data.csv,1,300,159.0,Training at home,,,,,,,,,,,,,
3,18,3990,B,73.42405326625318,46.5495857883344,3.671202663312659,0.731199183701396,B,459.0149169962387,Correct,sub_003_day_18_data.csv,1,300,159.0,Training at home,,,,,,,,,,,,,
3,18,3991,B,53.25757376619987,23.270740522611742,2.662878688309994,0.3655359373471568,B,432.01366599532776,Correct,sub_003_day_18_data.csv,1,300,159.0,Training at home,,,,,,,,,,,,,
3,18,3992,B,63.28818540375048,35.08809624776605,3.164409270187524,0.5511625270021671,B,416.6296249895822,Correct,sub_003_day_18_data.csv,1,300,159.0,Training at home,,,,,,,,,,,,,
3,18,3993,B,65.71793018760972,44.35848542687203,3.2858965093804864,0.6967814597071554,B,532.6883329980774,Correct,sub_003_day_18_data.csv,1,300,159.0,Training at home,,,,,,,,,,,,,
3,18,3994,A,45.30560406854752,75.49057674363931,2.265280203427376,1.1858032065653688,A,985.1131239993264,Correct,sub_003_day_18_data.csv,1,300,159.0,Training at home,,,,,,,,,,,,,
3,18,3995,B,44.95176383709216,24.62381138464034,2.247588191854608,0.386789924746834,B,457.700623999699,Correct,sub_003_day_18_data.csv,1,300,159.0,Training at home,,,,,,,,,,,,,
3,18,3996,A,21.703299795935276,40.40770925394878,1.085164989796764,0.6347228127029889,A,1207.32937399589,Correct,sub_003_day_18_data.csv,1,300,159.0,Training at home,,,,,,,,,,,,,
3,18,3997,A,47.43395288625526,76.66044645271106,2.3716976443127633,1.204179476983754,A,520.4943329881644,Correct,sub_003_day_18_data.csv,1,300,159.0,Training at home,,,,,,,,,,,,,
3,18,3998,B,37.90594623775881,23.43689498016343,1.8952973118879408,0.3681458854631846,B,891.2654579908121,Correct,sub_003_day_18_data.csv,1,300,159.0,Training at home,,,,,,,,,,,,,
3,18,3999,B,80.0909023866427,65.78204826323525,4.004545119332135,1.0333019978093454,A,515.6635000021197,Incorrect,sub_003_day_18_data.csv,0,300,159.0,Training at home,,,,,,,,,,,,,
3,18,4000,B,56.9884503311887,30.00932898294923,2.849422516559435,0.4713854373599628,B,440.3832490061177,Correct,sub_003_day_18_data.csv,1,300,160.0,Training at home,,,,,,,,,,,,,
3,18,4001,A,40.05645218582423,47.89518844623457,2.0028226092912114,0.7523358608249464,A,1364.7575409995625,Correct,sub_003_day_18_data.csv,1,300,160.0,Training at home,,,,,,,,,,,,,
3,18,4002,A,59.186176727576715,80.17702485379986,2.959308836378836,1.2594177613369195,A,473.7295420054579,Correct,sub_003_day_18_data.csv,1,300,160.0,Training at home,,,,,,,,,,,,,
3,18,4003,B,84.4711338584692,65.72437077396751,4.22355669292346,1.03239600192654,B,495.370124001056,Correct,sub_003_day_18_data.csv,1,300,160.0,Training at home,,,,,,,,,,,,,
3,18,4004,B,55.87835666883125,38.46406428572523,2.7939178334415624,0.6041921089361996,B,397.73837401298806,Correct,sub_003_day_18_data.csv,1,300,160.0,Training at home,,,,,,,,,,,,,
3,18,4005,A,30.467719336857485,54.91604438578737,1.5233859668428744,0.8626192080330032,A,525.4226239921991,Correct,sub_003_day_18_data.csv,1,300,160.0,Training at home,,,,,,,,,,,,,
3,18,4006,A,50.00715950469751,80.32996975134357,2.5003579752348757,1.2618202141695565,A,633.7250409997068,Correct,sub_003_day_18_data.csv,1,300,160.0,Training at home,,,,,,,,,,,,,
3,18,4007,B,64.03788069760508,42.41144811773445,3.201894034880254,0.666197469173896,B,625.8655830024509,Correct,sub_003_day_18_data.csv,1,300,160.0,Training at home,,,,,,,,,,,,,
3,18,4008,B,72.6214473767858,52.99804450041079,3.63107236883929,0.8324913362855774,B,438.8336669944693,Correct,sub_003_day_18_data.csv,1,300,160.0,Training at home,,,,,,,,,,,,,
3,18,4009,A,24.913092761879145,41.412380614344514,1.245654638093957,0.6505041535284455,A,568.8647080096416,Correct,sub_003_day_18_data.csv,1,300,160.0,Training at home,,,,,,,,,,,,,
3,18,4010,B,46.075214682047374,30.922744473183982,2.3037607341023687,0.4857333343289459,B,488.1699999968987,Correct,sub_003_day_18_data.csv,1,300,160.0,Training at home,,,,,,,,,,,,,
3,18,4011,B,58.81532077351741,45.46679069032927,2.940766038675871,0.7141906780752161,B,380.33145800000057,Correct,sub_003_day_18_data.csv,1,300,160.0,Training at home,,,,,,,,,,,,,
3,18,4012,B,62.02003285786271,35.20881449789444,3.1010016428931357,0.5530587648409547,B,492.5406240072334,Correct,sub_003_day_18_data.csv,1,300,160.0,Training at home,,,,,,,,,,,,,
3,18,4013,B,75.49971338377958,46.27044959705143,3.774985669188979,0.7268145226619679,B,537.8171670017764,Correct,sub_003_day_18_data.csv,1,300,160.0,Training at home,,,,,,,,,,,,,
3,18,4014,B,63.52126457568521,51.2901642630313,3.1760632287842605,0.8056640162507643,B,364.2424160061637,Correct,sub_003_day_18_data.csv,1,300,160.0,Training at home,,,,,,,,,,,,,
3,18,4015,A,27.776693227772313,38.34898300760021,1.3888346613886156,0.6023844164465831,A,549.2189999931725,Correct,sub_003_day_18_data.csv,1,300,160.0,Training at home,,,,,,,,,,,,,
3,18,4016,B,40.204454152367525,18.146424334628502,2.0102227076183765,0.2850433668929598,B,530.3606240049703,Correct,sub_003_day_18_data.csv,1,300,160.0,Training at home,,,,,,,,,,,,,
3,18,4017,A,46.2979852896473,68.74571256094083,2.314899264482365,1.0798551277362365,A,1195.810707999044,Correct,sub_003_day_18_data.csv,1,300,160.0,Training at home,,,,,,,,,,,,,
3,18,4018,B,53.616087614925945,35.0375379615984,2.6808043807462973,0.5503683593001553,B,478.56312499789055,Correct,sub_003_day_18_data.csv,1,300,160.0,Training at home,,,,,,,,,,,,,
3,18,4019,A,31.88235633267948,54.03075752884702,1.594117816633974,0.848713154602586,A,1142.4067080079112,Correct,sub_003_day_18_data.csv,1,300,160.0,Training at home,,,,,,,,,,,,,
3,18,4020,A,55.57217438658804,64.35852453951934,2.778608719329402,1.0109413394461615,B,491.32416599604767,Incorrect,sub_003_day_18_data.csv,0,300,160.0,Training at home,,,,,,,,,,,,,
3,18,4021,A,66.59326824484806,78.6938179050999,3.329663412242403,1.2361196010679738,A,649.077624999336,Correct,sub_003_day_18_data.csv,1,300,160.0,Training at home,,,,,,,,,,,,,
3,18,4022,B,64.68293252394679,55.89229656311096,3.2341466261973393,0.8779541413746573,B,1027.1907499991355,Correct,sub_003_day_18_data.csv,1,300,160.0,Training at home,,,,,,,,,,,,,
3,18,4023,B,64.27445676134239,40.15393768996939,3.213722838067119,0.6307365782975508,B,713.9135830075247,Correct,sub_003_day_18_data.csv,1,300,160.0,Training at home,,,,,,,,,,,,,
3,18,4024,B,38.81836893090732,23.74715748704867,1.940918446545366,0.3730194775247598,B,494.1785830014851,Correct,sub_003_day_18_data.csv,1,300,160.0,Training at home,,,,,,,,,,,,,
3,18,4025,A,24.141703027955145,56.384717107656286,1.2070851513977572,0.8856890652007586,A,474.3426659988472,Correct,sub_003_day_18_data.csv,1,300,161.0,Training at home,,,,,,,,,,,,,
3,18,4026,A,29.14983166924263,48.09762884174518,1.4574915834621316,0.755515787121576,A,1187.254832999315,Correct,sub_003_day_18_data.csv,1,300,161.0,Training at home,,,,,,,,,,,,,
3,18,4027,A,42.11271076977464,61.82083449835599,2.105635538488732,0.971079397494128,A,819.8008329927688,Correct,sub_003_day_18_data.csv,1,300,161.0,Training at home,,,,,,,,,,,,,
3,18,4028,A,48.202961877090594,69.22953096768232,2.4101480938545294,1.0874549294976894,A,580.6174169993028,Correct,sub_003_day_18_data.csv,1,300,161.0,Training at home,,,,,,,,,,,,,
3,18,4029,B,48.98000536304333,38.1773950005756,2.449000268152167,0.59968911833502,B,1378.7783330044476,Correct,sub_003_day_18_data.csv,1,300,161.0,Training at home,,,,,,,,,,,,,
3,18,4030,A,10.997412369942854,36.02634833788651,0.5498706184971427,0.5659005563698556,A,500.6848750053905,Correct,sub_003_day_18_data.csv,1,300,161.0,Training at home,,,,,,,,,,,,,
3,18,4031,B,42.42800256817865,26.093529390635588,2.1214001284089323,0.4098762011992505,B,422.0984169951407,Correct,sub_003_day_18_data.csv,1,300,161.0,Training at home,,,,,,,,,,,,,
3,18,4032,A,43.35612561857619,53.1218238614429,2.1678062809288097,0.834435657942,A,695.8569580019685,Correct,sub_003_day_18_data.csv,1,300,161.0,Training at home,,,,,,,,,,,,,
3,18,4033,B,60.79441093062075,33.900441370567535,3.0397205465310373,0.5325068878161323,B,404.3997910048347,Correct,sub_003_day_18_data.csv,1,300,161.0,Training at home,,,,,,,,,,,,,
3,18,4034,B,63.28643426269224,44.77223606338831,3.164321713134612,0.7032806395076436,B,451.1320830060867,Correct,sub_003_day_18_data.csv,1,300,161.0,Training at home,,,,,,,,,,,,,
3,18,4035,A,18.644415502907925,42.654173581642965,0.9322207751453964,0.6700101918451669,A,648.3053749980172,Correct,sub_003_day_18_data.csv,1,300,161.0,Training at home,,,,,,,,,,,,,
3,18,4036,A,44.14772736257824,73.53142639921901,2.207386368128912,1.1550289449188254,A,711.5448750118958,Correct,sub_003_day_18_data.csv,1,300,161.0,Training at home,,,,,,,,,,,,,
3,18,4037,B,88.50122602006105,67.35984201988319,4.425061301003052,1.0580859241831704,B,443.15379099862184,Correct,sub_003_day_18_data.csv,1,300,161.0,Training at home,,,,,,,,,,,,,
3,18,4038,A,41.81244346043562,72.07363284652537,2.0906221730217807,1.1321299773408604,A,561.6227499995148,Correct,sub_003_day_18_data.csv,1,300,161.0,Training at home,,,,,,,,,,,,,
3,18,4039,B,67.05985413227754,58.49171237658878,3.352992706613877,0.9187856694908924,B,500.6965409993427,Correct,sub_003_day_18_data.csv,1,300,161.0,Training at home,,,,,,,,,,,,,
3,18,4040,A,55.11489950029619,79.28027228430759,2.7557449750148093,1.245331604914896,A,737.1600409969687,Correct,sub_003_day_18_data.csv,1,300,161.0,Training at home,,,,,,,,,,,,,
3,18,4041,B,55.219513360623125,38.69874046584681,2.7609756680311563,0.607878393753412,B,615.7272499985993,Correct,sub_003_day_18_data.csv,1,300,161.0,Training at home,,,,,,,,,,,,,
3,18,4042,B,84.57500657490152,55.342064245588666,4.228750328745076,0.8693111123421785,B,452.9289170022821,Correct,sub_003_day_18_data.csv,1,300,161.0,Training at home,,,,,,,,,,,,,
3,18,4043,A,36.28783448840672,54.29989717394754,1.814391724420336,0.8529407902617739,A,506.4379999967059,Correct,sub_003_day_18_data.csv,1,300,161.0,Training at home,,,,,,,,,,,,,
3,18,4044,A,36.834871940393725,46.24603586237812,1.8417435970196865,0.7264310326144862,A,1527.1573740028543,Correct,sub_003_day_18_data.csv,1,300,161.0,Training at home,,,,,,,,,,,,,
3,18,4045,B,65.83466665551649,54.70194275324944,3.291733332775824,0.8592561074534892,B,624.9212080001598,Correct,sub_003_day_18_data.csv,1,300,161.0,Training at home,,,,,,,,,,,,,
3,18,4046,B,34.78745253415451,22.803234683408405,1.7393726267077256,0.3581923727973991,B,944.4637499982492,Correct,sub_003_day_18_data.csv,1,300,161.0,Training at home,,,,,,,,,,,,,
3,18,4047,B,37.78293812304515,21.577478059080548,1.8891469061522577,0.3389382327670119,B,503.0344999977387,Correct,sub_003_day_18_data.csv,1,300,161.0,Training at home,,,,,,,,,,,,,
3,18,4048,A,49.23801159262749,59.013465616551485,2.4619005796313744,0.92698135021916,A,600.8191660075681,Correct,sub_003_day_18_data.csv,1,300,161.0,Training at home,,,,,,,,,,,,,
3,18,4049,A,35.33984819022027,62.38006140272865,1.7669924095110137,0.9798637131664626,A,517.7465830056462,Correct,sub_003_day_18_data.csv,1,300,161.0,Training at home,,,,,,,,,,,,,
3,18,4050,B,55.44856347956728,41.26824412706673,2.772428173978364,0.6482400628807149,B,515.9825419978006,Correct,sub_003_day_18_data.csv,1,300,162.0,Training at home,,,,,,,,,,,,,
3,18,4051,B,80.56965661418478,62.32239216105658,4.0284828307092395,0.9789578468365872,B,408.8328329962678,Correct,sub_003_day_18_data.csv,1,300,162.0,Training at home,,,,,,,,,,,,,
3,18,4052,B,88.36019633705432,65.51046034666223,4.418009816852716,1.0290359047917976,B,687.7803329989547,Correct,sub_003_day_18_data.csv,1,300,162.0,Training at home,,,,,,,,,,,,,
3,18,4053,A,50.47024095883001,63.17456927216829,2.5235120479415003,0.9923438135957168,A,606.6607910033781,Correct,sub_003_day_18_data.csv,1,300,162.0,Training at home,,,,,,,,,,,,,
3,18,4054,A,61.19964090444796,71.24758172468754,3.059982045222398,1.1191543966615838,B,722.4966249923455,Incorrect,sub_003_day_18_data.csv,0,300,162.0,Training at home,,,,,,,,,,,,,
3,18,4055,B,71.23070569961993,44.13834551073293,3.5615352849809967,0.6933235099906331,B,479.9730829981854,Correct,sub_003_day_18_data.csv,1,300,162.0,Training at home,,,,,,,,,,,,,
3,18,4056,A,56.266808560822795,85.58977757033853,2.81334042804114,1.3444410821867998,A,480.0220830074977,Correct,sub_003_day_18_data.csv,1,300,162.0,Training at home,,,,,,,,,,,,,
3,18,4057,A,36.47430950857557,64.1872024678445,1.8237154754287783,1.0082502186373046,A,579.3515000113985,Correct,sub_003_day_18_data.csv,1,300,162.0,Training at home,,,,,,,,,,,,,
3,18,4058,A,23.32546845756201,48.95636614536646,1.1662734228781004,0.7690048011436766,A,547.8578750044107,Correct,sub_003_day_18_data.csv,1,300,162.0,Training at home,,,,,,,,,,,,,
3,18,4059,B,63.83331530039904,36.49264711762269,3.1916657650199523,0.5732251604738409,B,433.1049580068793,Correct,sub_003_day_18_data.csv,1,300,162.0,Training at home,,,,,,,,,,,,,
3,18,4060,A,46.68539581875105,55.923089157424826,2.3342697909375523,0.8784378303150642,A,1259.2009999934817,Correct,sub_003_day_18_data.csv,1,300,162.0,Training at home,,,,,,,,,,,,,
3,18,4061,A,37.67637698148533,63.499195859818585,1.8838188490742669,0.9974430361103273,A,706.0267490014667,Correct,sub_003_day_18_data.csv,1,300,162.0,Training at home,,,,,,,,,,,,,
3,18,4062,A,60.45737202654334,69.62059111562334,3.022868601327167,1.0935976879371057,A,1365.134332998423,Correct,sub_003_day_18_data.csv,1,300,162.0,Training at home,,,,,,,,,,,,,
3,18,4063,A,30.525693251828574,39.15328011110362,1.5262846625914286,0.6150182858049325,A,737.5689579930622,Correct,sub_003_day_18_data.csv,1,300,162.0,Training at home,,,,,,,,,,,,,
3,18,4064,A,28.48053350869728,47.36059347656475,1.424026675434864,0.7439384626781427,A,622.4712910043309,Correct,sub_003_day_18_data.csv,1,300,162.0,Training at home,,,,,,,,,,,,,
3,18,4065,A,33.34893028242802,53.20799910385842,1.6674465141214012,0.8357892954844696,A,578.5003329947358,Correct,sub_003_day_18_data.csv,1,300,162.0,Training at home,,,,,,,,,,,,,
3,18,4066,B,43.617540072063385,29.268539866627027,2.180877003603169,0.4597491491314772,A,1450.04120800877,Incorrect,sub_003_day_18_data.csv,0,300,162.0,Training at home,,,,,,,,,,,,,
3,18,4067,A,32.57102390529736,48.36704826527232,1.628551195264868,0.7597478175300122,A,770.9829579980578,Correct,sub_003_day_18_data.csv,1,300,162.0,Training at home,,,,,,,,,,,,,
3,18,4068,B,55.648713369980825,47.97529683325629,2.7824356684990414,0.753594200425738,B,516.8325830018148,Correct,sub_003_day_18_data.csv,1,300,162.0,Training at home,,,,,,,,,,,,,
3,18,4069,B,46.79748636870802,20.038623588908948,2.3398743184354007,0.3147659632748374,B,747.9692079941742,Correct,sub_003_day_18_data.csv,1,300,162.0,Training at home,,,,,,,,,,,,,
3,18,4070,A,35.59003928064676,44.419774116516294,1.7795019640323375,0.6977441801928281,A,601.9091670023045,Correct,sub_003_day_18_data.csv,1,300,162.0,Training at home,,,,,,,,,,,,,
3,18,4071,A,16.750190437272465,41.67509333474247,0.8375095218636233,0.6546308352904794,A,469.41116599191446,Correct,sub_003_day_18_data.csv,1,300,162.0,Training at home,,,,,,,,,,,,,
3,18,4072,B,72.0504346185166,41.42409698650978,3.60252173092583,0.650688193872051,B,682.726790997549,Correct,sub_003_day_18_data.csv,1,300,162.0,Training at home,,,,,,,,,,,,,
3,18,4073,B,65.8643172279333,49.902100402931865,3.2932158613966647,0.783860360122755,B,414.89666601410136,Correct,sub_003_day_18_data.csv,1,300,162.0,Training at home,,,,,,,,,,,,,
3,18,4074,A,34.93415034502844,43.686567621722894,1.746707517251422,0.6862269995047917,A,937.6324580080108,Correct,sub_003_day_18_data.csv,1,300,162.0,Training at home,,,,,,,,,,,,,
3,18,4075,A,47.93247534321433,73.98348129162568,2.396623767160716,1.1621298065638457,A,1230.320998991374,Correct,sub_003_day_18_data.csv,1,300,163.0,Training at home,,,,,,,,,,,,,
3,18,4076,B,79.96569346081003,50.32763727074028,3.9982846730405015,0.7905446776114476,B,477.4246250017314,Correct,sub_003_day_18_data.csv,1,300,163.0,Training at home,,,,,,,,,,,,,
3,18,4077,A,62.999190921987754,84.92432968090435,3.149959546099388,1.3339882511828336,A,874.520041004871,Correct,sub_003_day_18_data.csv,1,300,163.0,Training at home,,,,,,,,,,,,,
3,18,4078,A,24.783802931049195,52.66477296226044,1.2391901465524595,0.8272563192060589,A,1015.7899579935474,Correct,sub_003_day_18_data.csv,1,300,163.0,Training at home,,,,,,,,,,,,,
3,18,4079,A,11.696882838278649,36.93072377488055,0.5848441419139323,0.5801064525145931,A,962.7636249933856,Correct,sub_003_day_18_data.csv,1,300,163.0,Training at home,,,,,,,,,,,,,
3,18,4080,B,79.5694787296434,48.663645205106306,3.9784739364821697,0.7644067513663106,B,852.1285000024363,Correct,sub_003_day_18_data.csv,1,300,163.0,Training at home,,,,,,,,,,,,,
3,18,4081,A,13.781628735350347,37.350347048870255,0.6890814367675175,0.5866978794887999,A,589.1576659923885,Correct,sub_003_day_18_data.csv,1,300,163.0,Training at home,,,,,,,,,,,,,
3,18,4082,B,57.21874314209005,27.83957648786713,2.860937157104502,0.4373030448666725,B,596.3540410011774,Correct,sub_003_day_18_data.csv,1,300,163.0,Training at home,,,,,,,,,,,,,
3,18,4083,B,75.97678651289847,56.790264438367274,3.798839325644923,0.8920593877749815,B,445.0737910083262,Correct,sub_003_day_18_data.csv,1,300,163.0,Training at home,,,,,,,,,,,,,
3,18,4084,B,60.88498471353085,50.999876079225146,3.044249235676542,0.8011041801224178,B,389.547875005519,Correct,sub_003_day_18_data.csv,1,300,163.0,Training at home,,,,,,,,,,,,,
3,18,4085,A,34.30625399114093,54.36968138982251,1.7153126995570462,0.8540369581614206,A,599.8497079999652,Correct,sub_003_day_18_data.csv,1,300,163.0,Training at home,,,,,,,,,,,,,
3,18,4086,A,46.49287569912382,59.35464277237918,2.324643784956191,0.9323405484507648,A,477.52595800557174,Correct,sub_003_day_18_data.csv,1,300,163.0,Training at home,,,,,,,,,,,,,
3,18,4087,A,23.177332175347946,38.92240183313598,1.158866608767397,0.6113916582952494,A,511.62608299637213,Correct,sub_003_day_18_data.csv,1,300,163.0,Training at home,,,,,,,,,,,,,
3,18,4088,A,23.426614685284264,42.37549549706826,1.1713307342642132,0.665632726729085,A,496.34070800675545,Correct,sub_003_day_18_data.csv,1,300,163.0,Training at home,,,,,,,,,,,,,
3,18,4089,A,40.83355601728984,60.73927492068844,2.0416778008644916,0.954090299376028,A,630.9652079944499,Correct,sub_003_day_18_data.csv,1,300,163.0,Training at home,,,,,,,,,,,,,
3,18,4090,A,51.62146891554209,74.18496452182511,2.581073445777104,1.165294697742926,A,455.32649899541866,Correct,sub_003_day_18_data.csv,1,300,163.0,Training at home,,,,,,,,,,,,,
3,18,4091,A,29.43967414513594,51.203260923580814,1.471983707256797,0.804298941786814,A,526.7371660011122,Correct,sub_003_day_18_data.csv,1,300,163.0,Training at home,,,,,,,,,,,,,
3,18,4092,A,50.8124201308816,71.22148113336343,2.54062100654408,1.1187444095317929,A,856.7802489997121,Correct,sub_003_day_18_data.csv,1,300,163.0,Training at home,,,,,,,,,,,,,
3,18,4093,A,18.165294078527616,42.244480404834434,0.9082647039263808,0.6635747464727291,A,892.6734580018092,Correct,sub_003_day_18_data.csv,1,300,163.0,Training at home,,,,,,,,,,,,,
3,18,4094,A,22.98365337191373,44.46560031574021,1.1491826685956863,0.6984640164469471,A,796.900542001822,Correct,sub_003_day_18_data.csv,1,300,163.0,Training at home,,,,,,,,,,,,,
3,18,4095,A,58.42208734390674,70.69477799664212,2.921104367195337,1.1104709760070612,A,570.9257909911685,Correct,sub_003_day_18_data.csv,1,300,163.0,Training at home,,,,,,,,,,,,,
3,18,4096,B,79.25478137607124,54.84574177340561,3.962739068803562,0.8615148971800695,B,603.3133330056444,Correct,sub_003_day_18_data.csv,1,300,163.0,Training at home,,,,,,,,,,,,,
3,18,4097,B,53.341017070689546,35.97767784265978,2.667050853534477,0.5651360420186012,B,490.2055830025347,Correct,sub_003_day_18_data.csv,1,300,163.0,Training at home,,,,,,,,,,,,,
3,18,4098,B,75.82478593431483,54.48138184303353,3.791239296715742,0.8557915447774724,B,735.7915830070851,Correct,sub_003_day_18_data.csv,1,300,163.0,Training at home,,,,,,,,,,,,,
3,18,4099,A,59.620134783845714,84.91064233327796,2.981006739192286,1.3337732508290827,A,512.9005830094684,Correct,sub_003_day_18_data.csv,1,300,163.0,Training at home,,,,,,,,,,,,,
3,18,4100,B,46.865517473387065,31.952092714377656,2.343275873669353,0.5019022986915439,B,423.4887500060722,Correct,sub_003_day_18_data.csv,1,300,164.0,Training at home,,,,,,,,,,,,,
3,18,4101,B,41.895049410054035,21.29896938915131,2.094752470502702,0.3345634288099582,B,500.6118739984231,Correct,sub_003_day_18_data.csv,1,300,164.0,Training at home,,,,,,,,,,,,,
3,18,4102,A,31.695273104002123,59.180733625398574,1.584763655200106,0.929608789958033,A,471.238916987204,Correct,sub_003_day_18_data.csv,1,300,164.0,Training at home,,,,,,,,,,,,,
3,18,4103,A,26.584251884713325,39.91459826707338,1.3292125942356663,0.6269770434341282,A,506.6619169956539,Correct,sub_003_day_18_data.csv,1,300,164.0,Training at home,,,,,,,,,,,,,
3,18,4104,B,86.39237846162092,62.85048168052215,4.3196189230810464,0.9872530576105414,B,529.329749988392,Correct,sub_003_day_18_data.csv,1,300,164.0,Training at home,,,,,,,,,,,,,
3,18,4105,B,59.1402327385964,32.05617700925302,2.95701163692982,0.5035372509722167,B,436.5134579857113,Correct,sub_003_day_18_data.csv,1,300,164.0,Training at home,,,,,,,,,,,,,
3,18,4106,A,41.562202682074314,54.053676992736825,2.078110134103716,0.8490731726994882,A,593.3437490020879,Correct,sub_003_day_18_data.csv,1,300,164.0,Training at home,,,,,,,,,,,,,
3,18,4107,A,27.17543169456702,45.39785649655363,1.358771584728351,0.7131078622914828,A,864.7824169893283,Correct,sub_003_day_18_data.csv,1,300,164.0,Training at home,,,,,,,,,,,,,
3,18,4108,B,36.85225877916449,14.070428130510702,1.8426129389582244,0.2210177682383779,B,742.6584989880212,Correct,sub_003_day_18_data.csv,1,300,164.0,Training at home,,,,,,,,,,,,,
3,18,4109,A,68.49791780694751,82.79619488318764,3.4248958903473756,1.3005595879510556,A,621.9923330063466,Correct,sub_003_day_18_data.csv,1,300,164.0,Training at home,,,,,,,,,,,,,
3,18,4110,A,67.14389655909325,82.09595932881777,3.357194827954663,1.2895603135841018,A,825.7290420006029,Correct,sub_003_day_18_data.csv,1,300,164.0,Training at home,,,,,,,,,,,,,
3,18,4111,B,67.17588476337674,38.62606019377429,3.358794238168837,0.6067367347093923,B,446.3439999963157,Correct,sub_003_day_18_data.csv,1,300,164.0,Training at home,,,,,,,,,,,,,
3,18,4112,A,49.72491759956768,67.14069931610995,2.486245879978384,1.0546436386418612,A,694.6224170096684,Correct,sub_003_day_18_data.csv,1,300,164.0,Training at home,,,,,,,,,,,,,
3,18,4113,A,22.189832391283968,38.77741730792943,1.1094916195641984,0.609114246698884,A,792.5387919967761,Correct,sub_003_day_18_data.csv,1,300,164.0,Training at home,,,,,,,,,,,,,
3,18,4114,B,41.33582897194087,25.565270616315708,2.066791448597044,0.4015783317762622,B,419.5560420048423,Correct,sub_003_day_18_data.csv,1,300,164.0,Training at home,,,,,,,,,,,,,
3,18,4115,A,42.239918575326605,65.12451387797645,2.1119959287663304,1.0229734718382868,A,527.83795799769,Correct,sub_003_day_18_data.csv,1,300,164.0,Training at home,,,,,,,,,,,,,
3,18,4116,B,40.82050233728488,16.960382747929177,2.041025116864244,0.2664130692148268,B,463.7059999949998,Correct,sub_003_day_18_data.csv,1,300,164.0,Training at home,,,,,,,,,,,,,
3,18,4117,A,43.29241000703543,70.43648285557222,2.1646205003517713,1.1064136854188455,A,474.9587490077829,Correct,sub_003_day_18_data.csv,1,300,164.0,Training at home,,,,,,,,,,,,,
3,18,4118,A,28.19886420573706,46.94846325923088,1.409943210286853,0.73746473636265,A,845.3684160049306,Correct,sub_003_day_18_data.csv,1,300,164.0,Training at home,,,,,,,,,,,,,
3,18,4119,A,10.412209145196524,34.52770890815434,0.5206104572598262,0.5423599832557227,A,615.1494990044739,Correct,sub_003_day_18_data.csv,1,300,164.0,Training at home,,,,,,,,,,,,,
3,18,4120,A,26.746643053783274,50.84576701220018,1.3373321526891635,0.7986834405583315,A,559.5032080018427,Correct,sub_003_day_18_data.csv,1,300,164.0,Training at home,,,,,,,,,,,,,
3,18,4121,B,57.23881966227026,40.3928092219339,2.861940983113513,0.6344887635474079,B,560.2734999993118,Correct,sub_003_day_18_data.csv,1,300,164.0,Training at home,,,,,,,,,,,,,
3,18,4122,B,76.51066731333374,64.42498164399764,3.825533365666687,1.0119852452022011,B,717.9695830127457,Correct,sub_003_day_18_data.csv,1,300,164.0,Training at home,,,,,,,,,,,,,
3,18,4123,A,51.4112385734906,75.80463358693285,2.57056192867453,1.1907363999238714,A,709.2603740020422,Correct,sub_003_day_18_data.csv,1,300,164.0,Training at home,,,,,,,,,,,,,
3,18,4124,A,52.950621852917415,82.2182329143129,2.647531092645871,1.2914809825736997,A,764.9483330023941,Correct,sub_003_day_18_data.csv,1,300,164.0,Training at home,,,,,,,,,,,,,
3,18,4125,A,66.4662769430283,77.94270058551903,3.323313847151415,1.2243210778020774,A,594.3788329896051,Correct,sub_003_day_18_data.csv,1,300,165.0,Training at home,,,,,,,,,,,,,
3,18,4126,B,78.51164364394943,65.45136701499388,3.9255821821974712,1.0281076689085704,B,461.7165829986334,Correct,sub_003_day_18_data.csv,1,300,165.0,Training at home,,,,,,,,,,,,,
3,18,4127,A,22.823790652264876,39.227873825537486,1.1411895326132435,0.6161900011312794,A,666.354417000548,Correct,sub_003_day_18_data.csv,1,300,165.0,Training at home,,,,,,,,,,,,,
3,18,4128,B,71.47029933811193,55.639316204534026,3.573514966905597,0.873980335194618,B,591.2919169932138,Correct,sub_003_day_18_data.csv,1,300,165.0,Training at home,,,,,,,,,,,,,
3,18,4129,B,42.399367569244816,28.317399887846115,2.1199683784622407,0.4448086772821089,B,444.8039169947151,Correct,sub_003_day_18_data.csv,1,300,165.0,Training at home,,,,,,,,,,,,,
3,18,4130,A,26.678385714803753,44.58721623538828,1.3339192857401878,0.700374354845577,A,521.7619169998216,Correct,sub_003_day_18_data.csv,1,300,165.0,Training at home,,,,,,,,,,,,,
3,18,4131,B,31.12828401127971,14.120616347760327,1.5564142005639854,0.2218061229114189,B,470.19300000101794,Correct,sub_003_day_18_data.csv,1,300,165.0,Training at home,,,,,,,,,,,,,
3,18,4132,A,26.57091152126641,48.70302957590421,1.3285455760633205,0.7650253996161355,A,428.32112399628386,Correct,sub_003_day_18_data.csv,1,300,165.0,Training at home,,,,,,,,,,,,,
3,18,4133,B,69.29052450095944,57.26489823715839,3.464526225047972,0.8995149180521195,B,428.70666600356344,Correct,sub_003_day_18_data.csv,1,300,165.0,Training at home,,,,,,,,,,,,,
3,18,4134,A,37.84088653154092,48.69409863230439,1.892044326577046,0.7648851126821212,A,646.972000002279,Correct,sub_003_day_18_data.csv,1,300,165.0,Training at home,,,,,,,,,,,,,
3,18,4135,A,50.62875106659466,73.3708774520586,2.5314375533297326,1.1525070479541213,A,682.7272920054384,Correct,sub_003_day_18_data.csv,1,300,165.0,Training at home,,,,,,,,,,,,,
3,18,4136,A,19.538229614167292,50.521804833568936,0.9769114807083646,0.7935946545561875,A,945.5631239979994,Correct,sub_003_day_18_data.csv,1,300,165.0,Training at home,,,,,,,,,,,,,
3,18,4137,B,70.26413943785855,54.55886340749719,3.5132069718929273,0.8570086223460107,B,453.2028329995228,Correct,sub_003_day_18_data.csv,1,300,165.0,Training at home,,,,,,,,,,,,,
3,18,4138,A,21.61883830122601,33.731644012346024,1.0809419150613002,0.529855425113462,A,728.4610829956364,Correct,sub_003_day_18_data.csv,1,300,165.0,Training at home,,,,,,,,,,,,,
3,18,4139,A,33.05603889403706,64.7667701310742,1.6528019447018527,1.0173540462026078,A,478.91958300897386,Correct,sub_003_day_18_data.csv,1,300,165.0,Training at home,,,,,,,,,,,,,
3,18,4140,A,39.775521082021626,54.02907449261212,1.9887760541010813,0.8486867175312295,A,493.4504580014618,Correct,sub_003_day_18_data.csv,1,300,165.0,Training at home,,,,,,,,,,,,,
3,18,4141,B,85.64442377027024,68.11616836805943,4.282221188513512,1.069966270678905,A,722.3470000026282,Incorrect,sub_003_day_18_data.csv,0,300,165.0,Training at home,,,,,,,,,,,,,
3,18,4142,B,37.78753897570505,23.387563910014332,1.8893769487852523,0.367370994825314,A,529.1317910014186,Incorrect,sub_003_day_18_data.csv,0,300,165.0,Training at home,,,,,,,,,,,,,
3,18,4143,B,85.0717224164811,66.55778172155564,4.253586120824054,1.0454871904783611,B,668.3925830002408,Correct,sub_003_day_18_data.csv,1,300,165.0,Training at home,,,,,,,,,,,,,
3,18,4144,A,46.99997072620003,77.04503532186187,2.349998536310002,1.2102205848136371,A,528.6942079983419,Correct,sub_003_day_18_data.csv,1,300,165.0,Training at home,,,,,,,,,,,,,
3,18,4145,B,58.963984578199,34.589495079333844,2.9481992289099503,0.5433305181630774,B,432.4021240026923,Correct,sub_003_day_18_data.csv,1,300,165.0,Training at home,,,,,,,,,,,,,
3,18,4146,A,28.76613230369416,59.804875515403296,1.438306615184708,0.9394127878402152,A,546.2174999993294,Correct,sub_003_day_18_data.csv,1,300,165.0,Training at home,,,,,,,,,,,,,
3,18,4147,A,12.864826399451257,38.97120642331935,0.6432413199725628,0.6121582790051572,A,456.1131659866078,Correct,sub_003_day_18_data.csv,1,300,165.0,Training at home,,,,,,,,,,,,,
3,18,4148,B,50.506367869305265,27.22284378605455,2.525318393465263,0.4276154302404577,B,411.87804099172354,Correct,sub_003_day_18_data.csv,1,300,165.0,Training at home,,,,,,,,,,,,,
3,18,4149,B,35.05112011190649,23.826203124130295,1.7525560055953249,0.3742611234885295,B,658.674873993732,Correct,sub_003_day_18_data.csv,1,300,165.0,Training at home,,,,,,,,,,,,,
3,18,4150,A,36.566341758010026,44.84498552588135,1.8283170879005013,0.7044233853922472,A,1109.534415998496,Correct,sub_003_day_18_data.csv,1,300,166.0,Training at home,,,,,,,,,,,,,
3,18,4151,B,54.132410674144985,38.61403106735979,2.7066205337072495,0.6065477816335277,B,376.2125829962315,Correct,sub_003_day_18_data.csv,1,300,166.0,Training at home,,,,,,,,,,,,,
3,18,4152,B,76.89398516881487,61.93887793952874,3.8446992584407433,0.972933619532092,B,531.1557920067571,Correct,sub_003_day_18_data.csv,1,300,166.0,Training at home,,,,,,,,,,,,,
3,18,4153,A,14.62402262242048,40.63483130786081,0.731201131121024,0.6382904375831802,A,542.9780419945018,Correct,sub_003_day_18_data.csv,1,300,166.0,Training at home,,,,,,,,,,,,,
3,18,4154,A,53.27918406541595,61.25903512133419,2.6639592032707977,0.9622546735159132,A,664.5175830053631,Correct,sub_003_day_18_data.csv,1,300,166.0,Training at home,,,,,,,,,,,,,
3,18,4155,B,86.8514893194055,64.23776320049531,4.342574465970276,1.009044424768584,B,629.4807079975726,Correct,sub_003_day_18_data.csv,1,300,166.0,Training at home,,,,,,,,,,,,,
3,18,4156,B,56.56281029445539,29.315957303785996,2.8281405147227696,0.4604939804926306,B,647.5949579908047,Correct,sub_003_day_18_data.csv,1,300,166.0,Training at home,,,,,,,,,,,,,
3,18,4157,B,83.31953336564555,60.244198237169925,4.165976668282278,0.946313653016501,B,1689.660707997973,Correct,sub_003_day_18_data.csv,1,300,166.0,Training at home,,,,,,,,,,,,,
3,18,4158,A,48.52639987399272,78.22295314996433,2.426319993699636,1.2287232747901329,A,685.4530409909785,Correct,sub_003_day_18_data.csv,1,300,166.0,Training at home,,,,,,,,,,,,,
3,18,4159,A,61.22703244559963,84.6170616443693,3.061351622279982,1.3291616961515262,A,561.2316250044387,Correct,sub_003_day_18_data.csv,1,300,166.0,Training at home,,,,,,,,,,,,,
3,18,4160,A,25.297863706541214,44.662901867477174,1.2648931853270609,0.7015632219743407,A,548.4375829983037,Correct,sub_003_day_18_data.csv,1,300,166.0,Training at home,,,,,,,,,,,,,
3,18,4161,A,56.339577410326,70.91613319496929,2.8169788705163,1.113948015331554,A,533.8669999910053,Correct,sub_003_day_18_data.csv,1,300,166.0,Training at home,,,,,,,,,,,,,
3,18,4162,B,58.34780483304461,45.14582591973289,2.9173902416522304,0.7091489752483826,B,492.8816660103621,Correct,sub_003_day_18_data.csv,1,300,166.0,Training at home,,,,,,,,,,,,,
3,18,4163,B,49.26146194251063,29.14914021832077,2.4630730971255317,0.4578736238416765,B,421.1085409915541,Correct,sub_003_day_18_data.csv,1,300,166.0,Training at home,,,,,,,,,,,,,
3,18,4164,A,51.948162532599184,71.16747269934748,2.5974081266299596,1.1178960470341113,A,481.3044999900739,Correct,sub_003_day_18_data.csv,1,300,166.0,Training at home,,,,,,,,,,,,,
3,18,4165,A,54.18055337579115,72.12408885840838,2.709027668789558,1.132922538522166,A,516.6964579984779,Correct,sub_003_day_18_data.csv,1,300,166.0,Training at home,,,,,,,,,,,,,
3,18,4166,B,64.98148874110576,32.65811110025759,3.249074437055288,0.5129924095634426,B,582.4454999965383,Correct,sub_003_day_18_data.csv,1,300,166.0,Training at home,,,,,,,,,,,,,
3,18,4167,B,65.98132098568726,48.035790458111464,3.299066049284363,0.7545444320629084,B,541.6558330034604,Correct,sub_003_day_18_data.csv,1,300,166.0,Training at home,,,,,,,,,,,,,
3,18,4168,B,70.25766478558582,46.66073720869034,3.5128832392792906,0.7329451461295273,B,430.08079200808425,Correct,sub_003_day_18_data.csv,1,300,166.0,Training at home,,,,,,,,,,,,,
3,18,4169,B,48.76797961502621,22.048607325212284,2.4383989807513107,0.3463387139738651,B,844.2312489933101,Correct,sub_003_day_18_data.csv,1,300,166.0,Training at home,,,,,,,,,,,,,
3,18,4170,B,58.05190442934854,29.972048793960177,2.9025952214674273,0.4707998415207005,B,535.5810830078553,Correct,sub_003_day_18_data.csv,1,300,166.0,Training at home,,,,,,,,,,,,,
3,18,4171,A,61.25242029490185,80.71071659662915,3.0626210147450927,1.26780097162969,A,1182.4492909945548,Correct,sub_003_day_18_data.csv,1,300,166.0,Training at home,,,,,,,,,,,,,
3,18,4172,A,41.36854065095964,58.576583477140666,2.068427032547982,0.9201188216208718,A,646.8577909981832,Correct,sub_003_day_18_data.csv,1,300,166.0,Training at home,,,,,,,,,,,,,
3,18,4173,A,45.74394896900314,57.8300493437325,2.287197448450158,0.9083922908750264,A,1077.964083000552,Correct,sub_003_day_18_data.csv,1,300,166.0,Training at home,,,,,,,,,,,,,
3,18,4174,A,39.357057179984174,68.30921665123405,1.9678528589992088,1.0729986660199522,A,596.8935410055565,Correct,sub_003_day_18_data.csv,1,300,166.0,Training at home,,,,,,,,,,,,,
3,18,4175,A,18.94994837937315,36.07484664635211,0.9474974189686576,0.5666623660177907,A,489.8611669923412,Correct,sub_003_day_18_data.csv,1,300,167.0,Training at home,,,,,,,,,,,,,
3,18,4176,A,26.945174023983977,48.43934820380184,1.3472587011991988,0.7608835023087092,A,673.3524159935769,Correct,sub_003_day_18_data.csv,1,300,167.0,Training at home,,,,,,,,,,,,,
3,18,4177,B,39.197010839802175,21.30432682086628,1.9598505419901089,0.3346475831505475,B,1367.968000005931,Correct,sub_003_day_18_data.csv,1,300,167.0,Training at home,,,,,,,,,,,,,
3,18,4178,B,60.05078859769055,33.14627952335779,3.0025394298845276,0.5206605412220731,B,866.6740420012502,Correct,sub_003_day_18_data.csv,1,300,167.0,Training at home,,,,,,,,,,,,,
3,18,4179,B,70.73402065444978,49.32046300579765,3.5367010327224886,0.7747240212533053,B,624.2619580007158,Correct,sub_003_day_18_data.csv,1,300,167.0,Training at home,,,,,,,,,,,,,
3,18,4180,A,55.08711470364989,84.52973871950125,2.7543557351824943,1.3277900308552493,A,868.3935000008205,Correct,sub_003_day_18_data.csv,1,300,167.0,Training at home,,,,,,,,,,,,,
3,18,4181,B,81.96007771357385,56.68601376731414,4.0980038856786924,0.8904218220634198,B,1319.4034580083098,Correct,sub_003_day_18_data.csv,1,300,167.0,Training at home,,,,,,,,,,,,,
3,18,4182,B,59.16373088730403,44.36520672151349,2.9581865443652013,0.6968870375564964,A,2453.8473749998957,Incorrect,sub_003_day_18_data.csv,0,300,167.0,Training at home,,,,,,,,,,,,,
3,18,4183,A,50.08002409606953,64.5676968959324,2.5040012048034765,1.0142270111373686,A,1247.5148329976946,Correct,sub_003_day_18_data.csv,1,300,167.0,Training at home,,,,,,,,,,,,,
3,18,4184,B,49.63181138386369,36.99434843026682,2.4815905691931848,0.5811058662643366,B,641.6188739967765,Correct,sub_003_day_18_data.csv,1,300,167.0,Training at home,,,,,,,,,,,,,
3,18,4185,B,65.23104229366623,44.06458451854605,3.2615521146833117,0.692164875034754,B,449.3090830073925,Correct,sub_003_day_18_data.csv,1,300,167.0,Training at home,,,,,,,,,,,,,
3,18,4186,B,77.82135441665793,54.24575502013353,3.891067720832896,0.8520903272984158,B,449.3864999967627,Correct,sub_003_day_18_data.csv,1,300,167.0,Training at home,,,,,,,,,,,,,
3,18,4187,B,34.73597700841854,15.721028939355389,1.7367988504209269,0.2469453451137571,B,763.3442499936791,Correct,sub_003_day_18_data.csv,1,300,167.0,Training at home,,,,,,,,,,,,,
3,18,4188,B,36.41189297414057,25.8338176359326,1.8205946487070288,0.4057966584961214,B,1337.664457998471,Correct,sub_003_day_18_data.csv,1,300,167.0,Training at home,,,,,,,,,,,,,
3,18,4189,B,47.30371671195241,29.7096053842734,2.3651858355976203,0.4666773900814254,B,513.5415410040878,Correct,sub_003_day_18_data.csv,1,300,167.0,Training at home,,,,,,,,,,,,,
3,18,4190,A,24.59679973937389,56.7076019775152,1.2298399869686945,0.890760928876279,A,547.595750002074,Correct,sub_003_day_18_data.csv,1,300,167.0,Training at home,,,,,,,,,,,,,
3,18,4191,A,11.57918575270243,37.25497626290286,0.5789592876351215,0.5851997986859888,A,550.9775829996215,Correct,sub_003_day_18_data.csv,1,300,167.0,Training at home,,,,,,,,,,,,,
3,18,4192,A,15.601759532801186,33.35610777854292,0.7800879766400592,0.523956515747099,A,677.4653329921421,Correct,sub_003_day_18_data.csv,1,300,167.0,Training at home,,,,,,,,,,,,,
3,18,4193,A,12.906556974046296,32.55303732927463,0.6453278487023149,0.5113419146284174,A,1203.1454580137506,Correct,sub_003_day_18_data.csv,1,300,167.0,Training at home,,,,,,,,,,,,,
3,18,4194,B,71.98749915119897,48.306064291032015,3.5993749575599487,0.7587898835027121,B,592.1576239925344,Correct,sub_003_day_18_data.csv,1,300,167.0,Training at home,,,,,,,,,,,,,
3,18,4195,A,21.190068159561264,34.60285659831385,1.0595034079780632,0.5435404004124195,A,457.1509160014102,Correct,sub_003_day_18_data.csv,1,300,167.0,Training at home,,,,,,,,,,,,,
3,18,4196,A,46.39583719641736,74.18108860673595,2.319791859820868,1.165233815011076,A,496.6985830105841,Correct,sub_003_day_18_data.csv,1,300,167.0,Training at home,,,,,,,,,,,,,
3,18,4197,A,53.72667549554644,68.50933904168056,2.686333774777322,1.0761421811781804,B,1015.7978749921313,Incorrect,sub_003_day_18_data.csv,0,300,167.0,Training at home,,,,,,,,,,,,,
3,18,4198,A,60.728102898367595,73.43895937615784,3.03640514491838,1.1535764763170837,A,1311.637040998903,Correct,sub_003_day_18_data.csv,1,300,167.0,Training at home,,,,,,,,,,,,,
3,18,4199,B,49.12335988239504,26.086750931760537,2.456167994119752,0.4097697254162279,B,481.6715830093017,Correct,sub_003_day_18_data.csv,1,300,167.0,Training at home,,,,,,,,,,,,,
